time,seconds_elapsed,z,y,x
1700958579750166500,0.10416650390625,0.29576635360717773,0.05529212951660156,-0.2335376739501953
1700958579767155700,0.12115576171875,0.01425933837890625,-0.15058422088623047,-0.49579358100891113
1700958579784152000,0.138152099609375,-0.19281625747680664,-0.4209909439086914,-0.7153544425964355
1700958579801134800,0.155134765625,-1.2138409614562988,-0.6721329689025879,-0.5182859897613525
1700958579818139400,0.172139404296875,-2.4350481033325195,-0.9344720840454102,-0.548775851726532
1700958579835128600,0.189128662109375,-3.045757293701172,-1.4310498237609863,-0.815423309803009
1700958579852123400,0.206123291015625,-2.538668632507324,-1.6697001457214355,-1.3521318435668945
1700958579869119000,0.223118896484375,-1.3806161880493164,-2.332470417022705,-1.4384392499923706
1700958579886107600,0.240107666015625,0.5274910926818848,-2.897981643676758,-1.5363175868988037
1700958579903103000,0.25710302734375,1.2416892051696777,-3.378748893737793,-1.6822282075881958
1700958579920097800,0.274097900390625,0.49465322494506836,-4.0812668800354,-2.4950520992279053
1700958579937087200,0.291087158203125,-0.24192237854003906,-4.9907121658325195,-3.13055419921875
1700958579954083300,0.308083251953125,-0.17457818984985352,-5.937427997589111,-2.9253451824188232
1700958579971075600,0.32507568359375,0.3666095733642578,-7.0944108963012695,-2.6193294525146484
1700958579988070100,0.342070068359375,0.8695077896118164,-8.331324577331543,-2.9073245525360107
1700958580005062400,0.3590625,0.5965960025787354,-9.927680015563965,-4.302761077880859
1700958580022052600,0.376052490234375,-0.35629284381866455,-11.505928039550781,-5.595887660980225
1700958580039049500,0.393049560546875,-0.48945823311805725,-12.742684364318848,-4.498295783996582
1700958580056037000,0.410037109375,0.08606016635894775,-13.255023002624512,0.47156763076782227
1700958580073036000,0.4270361328125,0.04231381416320801,-12.654023170471191,6.1406660079956055
1700958580090028800,0.44402880859375,-1.677558422088623,-11.486344337463379,6.684518814086914
1700958580107017700,0.461017822265625,-2.6113526821136475,-10.168027877807617,3.6520748138427734
1700958580124009700,0.478009765625,-2.5220916271209717,-9.797374725341797,1.6995644569396973
1700958580141007000,0.495007080078125,-0.6819148063659668,-10.819962501525879,3.28466796875
1700958580158001400,0.51200146484375,-0.43000197410583496,-11.727885246276855,7.826298713684082
1700958580174990600,0.528990478515625,-2.1359808444976807,-12.721543312072754,12.917940139770508
1700958580191986000,0.54598583984375,-0.49041056632995605,-12.508885383605957,12.7643461227417
1700958580208981200,0.562981201171875,2.428910732269287,-11.77160930633545,13.510248184204102
1700958580225967600,0.579967529296875,3.4716079235076904,-11.04209041595459,18.729869842529297
1700958580242967800,0.5969677734375,4.015402793884277,-8.688551902770996,24.800804138183594
1700958580259961900,0.6139619140625,3.992943286895752,-4.133187770843506,26.51708221435547
1700958580276945400,0.6309453125,5.423151969909668,0.6896743774414062,25.960430145263672
1700958580293947400,0.647947509765625,5.914515495300293,4.906352519989014,24.390886306762695
1700958580310939000,0.66493896484375,4.710210800170898,8.550204277038574,21.679475784301758
1700958580327931000,0.681930908203125,3.2641003131866455,11.733604431152344,18.12104034423828
1700958580344924000,0.698923828125,0.9661165475845337,14.60733413696289,14.477904319763184
1700958580361921500,0.715921630859375,0.2008124589920044,17.579654693603516,6.530178070068359
1700958580378909700,0.73290966796875,1.7228686809539795,19.67169189453125,0.26750946044921875
1700958580395902200,0.749902099609375,3.4623374938964844,20.760234832763672,0.13268566131591797
1700958580412892000,0.766891845703125,0.7844141721725464,21.410385131835938,2.962033271789551
1700958580429886000,0.783885986328125,-5.258733749389648,22.21030044555664,0.76629638671875
1700958580446880800,0.800880859375,-8.692072868347168,22.495729446411133,-3.650134563446045
1700958580463869400,0.817869384765625,-6.469167709350586,20.622962951660156,-3.8760828971862793
1700958580480871000,0.834870849609375,-2.224925994873047,17.17070960998535,0.8671321868896484
1700958580497853200,0.851853271484375,0.9331203699111938,13.727203369140625,3.861006736755371
1700958580514856000,0.86885595703125,2.7578039169311523,11.266550064086914,3.8439865112304688
1700958580531848200,0.88584814453125,3.726799488067627,9.861254692077637,9.156332015991211
1700958580548843500,0.902843505859375,1.5078797340393066,7.971963882446289,17.347091674804688
1700958580565832200,0.919832275390625,0.05873227119445801,4.171185493469238,23.73111343383789
1700958580582827500,0.93682763671875,2.3451197147369385,2.2414376735687256,23.793493270874023
1700958580599822300,0.953822265625,6.1789116859436035,2.0917067527770996,25.576950073242188
1700958580616804600,0.9708046875,6.6339006423950195,-1.2707386016845703,32.790523529052734
1700958580633808000,0.987807861328125,4.194840431213379,-5.623654842376709,34.08525085449219
1700958580650800000,1.004800048828125,2.487089157104492,-9.38867473602295,29.564123153686523
1700958580667791000,1.021791015625,3.278806447982788,-13.186805725097656,22.616336822509766
1700958580684787500,1.038787353515625,6.605232238769531,-17.845890045166016,15.608573913574219
1700958580701779500,1.055779541015625,9.69868278503418,-22.049640655517578,9.000445365905762
1700958580718774300,1.072774169921875,10.563470840454102,-25.22417640686035,3.1863484382629395
1700958580735763000,1.089762939453125,8.405769348144531,-27.298877716064453,-1.4110116958618164
1700958580752759300,1.10675927734375,6.719061851501465,-28.200428009033203,-4.535177230834961
1700958580769753600,1.123753662109375,8.101895332336426,-28.862628936767578,-4.822590351104736
1700958580786742500,1.140742431640625,10.07351303100586,-29.213306427001953,-3.73415207862854
1700958580803741000,1.157740966796875,11.023738861083984,-28.47257423400879,-2.6256814002990723
1700958580820719900,1.174719970703125,10.343406677246094,-27.427902221679688,-1.8612885475158691
1700958580837723100,1.19172314453125,8.879608154296875,-26.241840362548828,-1.7692365646362305
1700958580854718000,1.208718017578125,6.604615211486816,-24.335166931152344,-2.186600685119629
1700958580871708400,1.22570849609375,3.135228395462036,-21.86566925048828,-0.7905950546264648
1700958580888707300,1.242707275390625,1.9549710750579834,-19.87762451171875,4.208202362060547
1700958580905694500,1.259694580078125,2.817560911178589,-17.52994155883789,11.920141220092773
1700958580922690000,1.27668994140625,0.2894566059112549,-14.616064071655273,15.498129844665527
1700958580939682300,1.293682373046875,-5.500959396362305,-13.079316139221191,14.26852798461914
1700958580956676400,1.31067626953125,-10.344334602355957,-13.410124778747559,14.551584243774414
1700958580973669600,1.327669677734375,-10.82944107055664,-12.680607795715332,20.82685661315918
1700958580990663700,1.34466357421875,-3.9652585983276367,-10.012500762939453,32.03718566894531
1700958581007652600,1.361652587890625,12.940845489501953,-3.034423351287842,39.73265075683594
1700958581024648200,1.378648193359375,17.673173904418945,4.120521068572998,38.0692253112793
1700958581041644300,1.395644287109375,10.86982536315918,8.042736053466797,31.720184326171875
1700958581058628400,1.41262841796875,2.9215478897094727,12.040739059448242,21.3570556640625
1700958581075626500,1.42962646484375,-1.7185373306274414,13.367300033569336,14.620768547058105
1700958581092620800,1.446620849609375,-1.91416335105896,14.0535306930542,11.324725151062012
1700958581109615600,1.46361572265625,-0.019120216369628906,15.374225616455078,5.391866683959961
1700958581126604800,1.480604736328125,1.594055414199829,16.983726501464844,-0.3990058898925781
1700958581143599900,1.497599853515625,2.344724655151367,19.04073715209961,-3.967928886413574
1700958581160596500,1.514596435546875,2.230612277984619,21.035306930541992,-3.8328604698181152
1700958581177584400,1.53158447265625,1.8270013332366943,22.146392822265625,0.014464378356933594
1700958581194578200,1.548578125,0.2875978946685791,22.178733825683594,3.2544994354248047
1700958581211575600,1.565575439453125,-1.7120766639709473,20.497896194458008,3.3588504791259766
1700958581228568000,1.582568115234375,-0.19194412231445312,17.38456153869629,3.475857734680176
1700958581245556700,1.599556640625,3.2249913215637207,14.57347297668457,7.240869522094727
1700958581262552300,1.61655224609375,3.6305809020996094,10.778255462646484,14.798575401306152
1700958581279547000,1.633546875,1.5105470418930054,7.983165740966797,24.412952423095703
1700958581296534300,1.6505341796875,-1.0434250831604004,3.8308911323547363,32.96764373779297
1700958581313530000,1.667530029296875,1.693355917930603,-0.6201756000518799,35.80898666381836
1700958581330528300,1.6845283203125,6.052452087402344,-4.173600196838379,37.687538146972656
1700958581347515400,1.701515380859375,4.656697750091553,-10.970663070678711,38.14912414550781
1700958581364512300,1.71851220703125,1.8531792163848877,-15.217551231384277,33.00466537475586
1700958581381504300,1.735504150390625,-0.43776512145996094,-17.44676971435547,25.548492431640625
1700958581398499000,1.7524990234375,-0.18381690979003906,-19.83261489868164,19.78634262084961
1700958581415487700,1.76948779296875,3.0576791763305664,-24.7327880859375,14.49220085144043
1700958581432483800,1.78648388671875,9.452994346618652,-29.43396759033203,7.839010715484619
1700958581449478400,1.803478515625,16.821062088012695,-31.224533081054688,-0.33585527539253235
1700958581466467300,1.82046728515625,18.953514099121094,-32.15834045410156,-6.252835750579834
1700958581483462700,1.837462646484375,14.61759090423584,-33.1357421875,-8.599775314331055
1700958581500465200,1.854465087890625,9.348349571228027,-33.382484436035156,-6.585667610168457
1700958581517446700,1.87144677734375,5.875247955322266,-32.52748107910156,-1.6271895170211792
1700958581534443000,1.888443115234375,6.1104254722595215,-30.944965362548828,0.4331696033477783
1700958581551435500,1.905435546875,8.209009170532227,-29.133207321166992,0.2903866767883301
1700958581568430600,1.9224306640625,9.44896125793457,-27.262258529663086,0.7961578369140625
1700958581585419300,1.939419189453125,8.881067276000977,-25.67867660522461,3.739291191101074
1700958581602414600,1.95641455078125,6.335575103759766,-23.712995529174805,8.540252685546875
1700958581619409400,1.973409423828125,0.4407787322998047,-20.98792266845703,16.157014846801758
1700958581636394800,1.990394775390625,-1.8508362770080566,-17.136749267578125,20.58609390258789
1700958581653398000,2.00739794921875,0.9889945983886719,-13.581225395202637,20.954042434692383
1700958581670388700,2.024388671875,-1.3730106353759766,-8.862998962402344,18.541446685791016
1700958581687370500,2.04137060546875,-1.6360797882080078,-1.2461363077163696,23.957130432128906
1700958581704374500,2.05837451171875,2.5224246978759766,3.264967679977417,47.9686279296875
1700958581721366800,2.07536669921875,4.830137252807617,8.997827529907227,61.66250228881836
1700958581738356500,2.0923564453125,12.638033866882324,15.70651626586914,45.09368896484375
1700958581755350300,2.109350341796875,12.33186149597168,17.725486755371094,23.641008377075195
1700958581772346400,2.126346435546875,4.618646144866943,16.679216384887695,11.385769844055176
1700958581789326300,2.143326416015625,-0.13771390914916992,15.82461166381836,3.6983041763305664
1700958581806329900,2.160329833984375,-2.518944501876831,17.19544219970703,-4.023258686065674
1700958581823325000,2.177324951171875,-6.578904151916504,19.50225830078125,-9.625384330749512
1700958581840320300,2.1943203125,-11.297316551208496,20.572158813476562,-7.735450267791748
1700958581857309200,2.21130908203125,-11.425498962402344,19.865110397338867,-3.5629196166992188
1700958581874305500,2.228305419921875,-4.206391334533691,18.067739486694336,-2.225184440612793
1700958581891297500,2.245297607421875,4.7559709548950195,16.121736526489258,-0.7925930023193359
1700958581908292900,2.26229296875,7.483408451080322,14.540459632873535,-0.45246219635009766
1700958581925281500,2.279281494140625,3.3604941368103027,13.485113143920898,-0.21971511840820312
1700958581942276000,2.296276123046875,-3.165886402130127,11.651853561401367,3.921415328979492
1700958581959272000,2.31327197265625,-5.229089736938477,10.0313081741333,9.490763664245605
1700958581976261000,2.33026123046875,-2.315713882446289,8.122776985168457,15.883129119873047
1700958581993245000,2.347244873046875,2.2176992893218994,5.712928771972656,25.542972564697266
1700958582010252300,2.364252197265625,5.315618991851807,4.227644920349121,30.43390655517578
1700958582027240000,2.381239990234375,6.454470157623291,3.4568381309509277,32.79690933227539
1700958582044236800,2.39823681640625,4.208242893218994,-1.5032939910888672,34.66000747680664
1700958582061229000,2.41522900390625,3.6213953495025635,-4.209506988525391,29.23952865600586
1700958582078225400,2.432225341796875,1.719376802444458,-7.382582187652588,25.58806610107422
1700958582095208400,2.44920849609375,0.6649606227874756,-12.228996276855469,21.030654907226562
1700958582112216800,2.466216796875,1.905806303024292,-17.672367095947266,13.998141288757324
1700958582129195300,2.4831953125,6.025449275970459,-23.01131820678711,6.942836761474609
1700958582146182400,2.500182373046875,9.26754093170166,-27.36473846435547,0.9974186420440674
1700958582163192000,2.517192138671875,10.800009727478027,-29.7816162109375,-3.7701611518859863
1700958582180185600,2.534185546875,11.124434471130371,-31.74618911743164,-5.314667701721191
1700958582197174500,2.551174560546875,10.882285118103027,-32.77864456176758,-5.517210960388184
1700958582214168000,2.56816796875,11.282259941101074,-33.05876159667969,-5.223622798919678
1700958582231160000,2.58516015625,11.097887992858887,-33.44472122192383,-4.590399265289307
1700958582248155100,2.602155029296875,9.819146156311035,-33.41013717651367,-4.108747482299805
1700958582265144000,2.61914404296875,9.171058654785156,-32.62433624267578,-2.7350013256073
1700958582282139600,2.6361396484375,7.106619834899902,-30.35919189453125,0.8894662857055664
1700958582299134200,2.65313427734375,1.4355967044830322,-28.45206069946289,10.658477783203125
1700958582316123600,2.67012353515625,-4.291149139404297,-24.585840225219727,16.092365264892578
1700958582333119200,2.687119140625,-3.1648335456848145,-22.066476821899414,17.165985107421875
1700958582350113500,2.704113525390625,4.069217681884766,-19.53013801574707,15.227095603942871
1700958582367102500,2.7211025390625,9.959135055541992,-14.22999095916748,20.367733001708984
1700958582384099300,2.738099365234375,7.809628486633301,-12.105502128601074,40.666988372802734
1700958582401087700,2.755087646484375,4.468263626098633,-3.666834831237793,55.36750030517578
1700958582418090000,2.772090087890625,5.0720438957214355,6.0046892166137695,44.99336242675781
1700958582435076600,2.78907666015625,7.6560378074646,12.081355094909668,31.142467498779297
1700958582452071000,2.80607080078125,6.834587097167969,14.682003021240234,26.473953247070312
1700958582469060000,2.82306005859375,5.697328567504883,15.945794105529785,21.03592300415039
1700958582486054700,2.8400546875,3.878725051879883,16.17561912536621,12.510444641113281
1700958582503049700,2.8570498046875,1.455155611038208,16.522380828857422,3.8815879821777344
1700958582520045300,2.87404541015625,-1.4879192113876343,18.51078224182129,-4.043459892272949
1700958582537034000,2.891033935546875,-4.098758220672607,21.69457244873047,-8.638992309570312
1700958582554029300,2.908029296875,-5.23172664642334,22.861957550048828,-5.756036758422852
1700958582571023400,2.9250234375,-5.93787956237793,20.536495208740234,-0.06363964080810547
1700958582588018000,2.942017822265625,-5.346227645874023,17.00813865661621,1.7508087158203125
1700958582604999400,2.95899951171875,-3.2293736934661865,13.65751838684082,0.0106658935546875
1700958582622001000,2.9760009765625,-0.5259648561477661,11.074590682983398,0.6252946853637695
1700958582638997800,2.992997802734375,1.0918562412261963,9.77199935913086,4.864392280578613
1700958582655986200,3.009986083984375,1.99496328830719,8.840116500854492,13.408093452453613
1700958582672981200,3.026981201171875,1.9571728706359863,5.822902679443359,23.292858123779297
1700958582689977900,3.043977783203125,1.0278537273406982,1.7194714546203613,22.35426139831543
1700958582706963500,3.06096337890625,2.3842265605926514,-0.22398757934570312,18.936487197875977
1700958582723959600,3.07795947265625,6.894266128540039,2.417048931121826,20.056663513183594
1700958582740957700,3.094957763671875,10.064798355102539,1.6677227020263672,24.36664390563965
1700958582757948200,3.1119482421875,9.565788269042969,-3.7738494873046875,24.699443817138672
1700958582774942000,3.12894189453125,8.199712753295898,-11.52964973449707,22.586214065551758
1700958582791934000,3.145933837890625,11.308575630187988,-17.83889389038086,14.548659324645996
1700958582808927000,3.162927001953125,16.01172637939453,-23.206989288330078,3.6903164386749268
1700958582825920300,3.179920166015625,16.344106674194336,-27.690113067626953,-5.896472930908203
1700958582842913300,3.196913330078125,11.737844467163086,-27.540842056274414,-14.468292236328125
1700958582859906800,3.21390673828125,9.094700813293457,-25.99414825439453,-14.954248428344727
1700958582876900000,3.230900146484375,12.003259658813477,-27.234172821044922,-7.325185775756836
1700958582893893000,3.24789306640625,15.158134460449219,-28.13283348083496,-1.0195140838623047
1700958582910872800,3.264872802734375,16.214374542236328,-26.62868309020996,-1.6144123077392578
1700958582927876000,3.2818759765625,14.627676010131836,-23.909257888793945,-5.954591751098633
1700958582944874500,3.29887451171875,11.274752616882324,-21.951156616210938,-9.066767692565918
1700958582961865500,3.315865478515625,8.669103622436523,-20.9288272857666,-8.802823066711426
1700958582978858200,3.332858154296875,8.698177337646484,-20.910676956176758,-2.2956666946411133
1700958582995852300,3.349852294921875,8.744839668273926,-19.77222442626953,10.137925148010254
1700958583012844800,3.3668447265625,4.392031669616699,-15.231046676635742,17.072546005249023
1700958583029835300,3.383835205078125,-4.393154621124268,-9.73892593383789,16.400924682617188
1700958583046833700,3.400833740234375,-3.574516534805298,-8.691027641296387,19.25436782836914
1700958583063821600,3.417821533203125,2.4228551387786865,-7.544672966003418,26.582183837890625
1700958583080820500,3.434820556640625,6.1645307540893555,-2.1751554012298584,36.10035705566406
1700958583097801000,3.451801025390625,5.459720611572266,5.911650657653809,41.08492660522461
1700958583114803500,3.468803466796875,12.685060501098633,9.528474807739258,39.43627166748047
1700958583131797000,3.485796875,13.948652267456055,11.205252647399902,24.788021087646484
1700958583148789800,3.502789794921875,10.613062858581543,12.062406539916992,7.534822463989258
1700958583165783000,3.519782958984375,5.5249481201171875,12.91368579864502,-0.9631938934326172
1700958583182776000,3.536776123046875,-0.3616790175437927,13.681598663330078,-2.1676387786865234
1700958583199769900,3.553769775390625,-5.490650653839111,14.76537799835205,-2.4224910736083984
1700958583216757000,3.570757080078125,-8.886454582214355,15.351613998413086,-4.649701118469238
1700958583233755400,3.58775537109375,-7.868457317352295,15.142190933227539,-5.61147928237915
1700958583250751200,3.604751220703125,-2.839554786682129,14.450798034667969,-5.386758327484131
1700958583267736800,3.62173681640625,1.6370161771774292,13.37807846069336,-6.06266450881958
1700958583284737500,3.638737548828125,1.7233242988586426,12.874267578125,-6.565247535705566
1700958583301713400,3.65571337890625,0.5386129021644592,12.757137298583984,-3.177426815032959
1700958583318721000,3.672720947265625,1.1145851612091064,13.04561996459961,6.050838470458984
1700958583335714600,3.689714599609375,1.7090985774993896,12.18272876739502,14.20862865447998
1700958583352707300,3.706707275390625,4.360739707946777,8.915912628173828,17.561594009399414
1700958583369697800,3.72369775390625,7.050497055053711,5.652497291564941,16.467994689941406
1700958583386696200,3.7406962890625,7.473447799682617,3.128939628601074,16.446002960205078
1700958583403687200,3.757687255859375,8.316336631774902,2.492548942565918,19.463865280151367
1700958583420669200,3.774669189453125,9.200439453125,-1.7076783180236816,22.203285217285156
1700958583437673200,3.791673095703125,10.573394775390625,-4.5347371101379395,18.795835494995117
1700958583454666000,3.808666015625,11.87162971496582,-9.97884750366211,15.120942115783691
1700958583471659500,3.825659423828125,12.54037094116211,-15.958372116088867,10.315837860107422
1700958583488641800,3.842641845703125,13.119210243225098,-21.27073097229004,4.133370876312256
1700958583505643000,3.85964306640625,13.649481773376465,-25.495134353637695,-0.37915778160095215
1700958583522641200,3.87664111328125,11.372889518737793,-28.18952178955078,-2.150787353515625
1700958583539632000,3.893632080078125,7.313999176025391,-29.30894660949707,-0.09800267219543457
1700958583556625000,3.910625,4.162672519683838,-28.201473236083984,0.18730497360229492
1700958583573618400,3.927618408203125,2.7408876419067383,-25.81696128845215,-3.3890223503112793
1700958583590611000,3.94461083984375,2.754958152770996,-24.64012908935547,-7.073554515838623
1700958583607604500,3.9616044921875,4.170014381408691,-23.71336555480957,-6.636836528778076
1700958583624597200,3.97859716796875,5.1758012771606445,-22.047161102294922,-1.3189282417297363
1700958583641590500,3.995590576171875,5.126763343811035,-19.516225814819336,4.827112197875977
1700958583658583600,4.01258349609375,2.6594605445861816,-16.1473388671875,7.870140552520752
1700958583675577000,4.0295771484375,-0.870274543762207,-13.416210174560547,9.626089096069336
1700958583692572000,4.046572021484375,-2.8859541416168213,-12.501660346984863,16.02368927001953
1700958583709561300,4.063561279296875,-3.145297050476074,-11.900737762451172,20.98284149169922
1700958583726556000,4.080555908203125,-4.28182315826416,-6.41207218170166,21.169754028320312
1700958583743549400,4.097549560546875,-2.3277204036712646,-1.937563180923462,27.475482940673828
1700958583760542500,4.11454248046875,6.014547348022461,2.374241828918457,43.673255920410156
1700958583777525200,4.131525146484375,12.944964408874512,9.402616500854492,48.181121826171875
1700958583794528500,4.148528564453125,16.564212799072266,14.241235733032227,30.025367736816406
1700958583811522300,4.165522216796875,15.733068466186523,14.168161392211914,14.095026016235352
1700958583828512500,4.182512451171875,11.36320686340332,12.061630249023438,5.815631866455078
1700958583845511000,4.199510986328125,6.570219039916992,9.768454551696777,-0.45105743408203125
1700958583862503200,4.216503173828125,3.4773550033569336,8.985466003417969,-5.376119613647461
1700958583879493000,4.2334931640625,1.7612210512161255,10.834733009338379,-10.12221622467041
1700958583896477700,4.250477783203125,3.4639453887939453,12.50189208984375,-11.280487060546875
1700958583913481000,4.26748095703125,4.8739495277404785,13.882550239562988,-10.480902671813965
1700958583930473700,4.2844736328125,2.199948310852051,13.630805969238281,-9.548511505126953
1700958583947456800,4.301456787109375,-0.8784917593002319,13.055672645568848,-10.649230003356934
1700958583964463400,4.31846337890625,-0.6598043441772461,12.474601745605469,-12.786730766296387
1700958583981449700,4.33544970703125,2.8491127490997314,12.387696266174316,-12.01970100402832
1700958583998446000,4.352446044921875,6.480503082275391,12.729825973510742,-4.65626859664917
1700958584015426800,4.3694267578125,4.877555847167969,13.039021492004395,7.593766212463379
1700958584032435200,4.386435302734375,0.8787190914154053,11.482912063598633,16.868236541748047
1700958584049426000,4.403426025390625,-1.2451106309890747,10.047279357910156,16.449127197265625
1700958584066419000,4.4204189453125,1.608856439590454,11.656390190124512,15.993825912475586
1700958584083412200,4.437412109375,5.9430413246154785,13.703229904174805,21.38018035888672
1700958584100405000,4.454405029296875,8.471015930175781,12.403923034667969,29.098587036132812
1700958584117398300,4.471398193359375,6.556783199310303,9.178970336914062,32.052669525146484
1700958584134388500,4.488388427734375,2.4096105098724365,1.8351202011108398,29.608318328857422
1700958584151387100,4.50538720703125,2.5956108570098877,-8.607687950134277,24.638286590576172
1700958584168377900,4.5223779296875,9.703449249267578,-19.713308334350586,15.62065601348877
1700958584185371000,4.539370849609375,16.843204498291016,-26.278837203979492,5.407782077789307
1700958584202363400,4.55636328125,14.25485897064209,-30.318456649780273,-1.2821002006530762
1700958584219355600,4.573355712890625,4.987663269042969,-31.35639762878418,-3.6022796630859375
1700958584236352000,4.59035205078125,-0.12357282638549805,-31.225589752197266,-1.1479008197784424
1700958584253343200,4.60734326171875,0.46991729736328125,-31.041194915771484,1.4258071184158325
1700958584270336300,4.624336181640625,4.427367687225342,-29.95093536376953,-0.0315709114074707
1700958584287329800,4.641329833984375,6.906903266906738,-27.681724548339844,-1.7597872018814087
1700958584304334800,4.6583349609375,6.373581409454346,-24.728164672851562,3.429661750793457
1700958584321315800,4.67531591796875,3.867464542388916,-19.807832717895508,13.701128959655762
1700958584338308600,4.69230859375,0.43111276626586914,-14.601722717285156,12.839334487915039
1700958584355285000,4.709284912109375,-3.888737678527832,-11.71593189239502,7.97539758682251
1700958584372295400,4.72629541015625,-6.221936225891113,-11.923892974853516,12.148696899414062
1700958584389288200,4.7432880859375,-4.516374111175537,-10.995487213134766,21.580678939819336
1700958584406281000,4.760281005859375,-1.6639161109924316,-1.0251750946044922,18.72298240661621
1700958584423275000,4.77727490234375,5.655855178833008,9.885292053222656,17.940462112426758
1700958584440267500,4.794267578125,11.790287017822266,13.50531005859375,34.28797912597656
1700958584457260800,4.8112607421875,12.690765380859375,15.630563735961914,42.267601013183594
1700958584474243300,4.828243408203125,12.467660903930664,17.237009048461914,30.095592498779297
1700958584491247400,4.845247314453125,10.26506519317627,16.19715118408203,11.101574897766113
1700958584508240100,4.862240234375,6.672520637512207,12.902894973754883,-0.0020084381103515625
1700958584525233700,4.879233642578125,3.1822571754455566,9.988286972045898,-6.707945346832275
1700958584542226000,4.896225830078125,3.0386266708374023,8.79349136352539,-11.225240707397461
1700958584559220000,4.913219970703125,5.616819858551025,8.703561782836914,-9.010843276977539
1700958584576212700,4.930212646484375,5.224484920501709,9.498919486999512,-5.769620418548584
1700958584593201700,4.94720166015625,0.5671993494033813,10.359956741333008,-10.229775428771973
1700958584610203000,4.964202880859375,-5.611762523651123,11.178760528564453,-18.866378784179688
1700958584627192300,4.9811923828125,-6.270256996154785,11.922076225280762,-20.012168884277344
1700958584644185300,4.998185302734375,-4.574035167694092,12.062322616577148,-13.794097900390625
1700958584661178400,5.015178466796875,0.5713428258895874,12.264476776123047,-6.209763526916504
1700958584678177300,5.03217724609375,5.472031593322754,13.359914779663086,-0.8940634727478027
1700958584695154400,5.049154541015625,5.597851753234863,15.328471183776855,5.10166072845459
1700958584712158000,5.066157958984375,1.9175564050674438,15.521425247192383,13.917566299438477
1700958584729163000,5.0831630859375,0.4375944137573242,15.974137306213379,19.304332733154297
1700958584746143700,5.100143798828125,2.4544739723205566,18.05176544189453,23.1634521484375
1700958584763137300,5.11713720703125,4.397259712219238,14.947932243347168,31.758371353149414
1700958584780111400,5.134111328125,3.7043821811676025,9.525390625,36.555389404296875
1700958584797120800,5.151120849609375,0.5340991020202637,2.772524833679199,33.625946044921875
1700958584814123800,5.168123779296875,-2.0772287845611572,-5.042852401733398,24.772443771362305
1700958584831110100,5.185110107421875,1.5550808906555176,-13.68690013885498,14.153037071228027
1700958584848103000,5.20210302734375,9.915670394897461,-21.078514099121094,3.536334276199341
1700958584865096000,5.219095947265625,14.986310005187988,-25.06865692138672,-2.7647721767425537
1700958584882089000,5.2360888671875,14.672893524169922,-26.606590270996094,-1.8091963529586792
1700958584899082800,5.253082763671875,11.039831161499023,-27.420866012573242,2.781672954559326
1700958584916075300,5.2700751953125,8.209630966186523,-27.687820434570312,5.268289089202881
1700958584933075000,5.287074951171875,8.190726280212402,-27.065414428710938,1.140146017074585
1700958584950058800,5.304058837890625,8.81546688079834,-25.83774185180664,-4.266495227813721
1700958584967057400,5.321057373046875,9.419313430786133,-25.125776290893555,-5.696179389953613
1700958584984047600,5.338047607421875,9.973352432250977,-24.922130584716797,-2.8310508728027344
1700958585001041200,5.355041259765625,9.454200744628906,-23.64980697631836,1.843252182006836
1700958585018034200,5.3720341796875,6.38896369934082,-21.499935150146484,6.1739373207092285
1700958585035016700,5.3890166015625,2.1449806690216064,-18.426563262939453,9.027392387390137
1700958585052020200,5.406020263671875,-1.2870001792907715,-15.388988494873047,11.228094100952148
1700958585069002800,5.423002685546875,-4.726531028747559,-13.328204154968262,17.301958084106445
1700958585086006300,5.44000634765625,-6.881329536437988,-6.02933406829834,21.858230590820312
1700958585103000000,5.457,-1.5223073959350586,3.2381343841552734,30.80594253540039
1700958585119992800,5.473992919921875,2.864140272140503,6.932013511657715,49.921173095703125
1700958585136986000,5.490986083984375,6.8963236808776855,11.724199295043945,54.2471809387207
1700958585153968000,5.507968017578125,11.340679168701172,16.858951568603516,33.48798370361328
1700958585170970400,5.524970458984375,10.523679733276367,18.31655502319336,13.421497344970703
1700958585187967500,5.541967529296875,5.812777996063232,16.68079376220703,4.140376091003418
1700958585204964000,5.558964111328125,3.50591778755188,15.221675872802734,-0.6083173751831055
1700958585221951500,5.575951416015625,3.947087049484253,14.924601554870605,-3.164553642272949
1700958585238945000,5.592945068359375,4.728821754455566,15.180280685424805,-5.1163649559021
1700958585255937800,5.609937744140625,3.9942498207092285,16.45313262939453,-8.739874839782715
1700958585272931300,5.626931396484375,0.2081444263458252,16.415773391723633,-12.162808418273926
1700958585289922000,5.643922119140625,-2.8773162364959717,15.844339370727539,-13.662385940551758
1700958585306919400,5.66091943359375,-3.5466859340667725,14.990671157836914,-11.65768051147461
1700958585323910400,5.677910400390625,-1.0680181980133057,14.062715530395508,-7.339746475219727
1700958585340904000,5.694904052734375,1.7876877784729004,13.894515991210938,-2.0240182876586914
1700958585357896400,5.711896484375,2.7844436168670654,13.43994140625,5.244203567504883
1700958585374890000,5.728889892578125,1.2845138311386108,12.200987815856934,12.05482292175293
1700958585391880700,5.745880615234375,-1.5791409015655518,11.476515769958496,16.51413345336914
1700958585408878600,5.762878662109375,1.0416311025619507,12.9058837890625,19.208194732666016
1700958585425868800,5.779868896484375,6.318338394165039,14.639863967895508,24.74924087524414
1700958585442862600,5.796862548828125,4.804094314575195,11.691584587097168,31.16754150390625
1700958585459840500,5.813840576171875,1.8180088996887207,7.902646064758301,32.72276306152344
1700958585476848600,5.8308486328125,-2.089369773864746,0.4020109176635742,32.003936767578125
1700958585493833700,5.847833740234375,-0.6937210559844971,-10.317086219787598,27.98037338256836
1700958585510834200,5.864834228515625,5.026575088500977,-20.287172317504883,17.623567581176758
1700958585527829000,5.8818291015625,11.620077133178711,-26.57140350341797,5.913128852844238
1700958585544821200,5.8988212890625,15.119416236877441,-29.84522247314453,-1.1315064430236816
1700958585561814300,5.915814208984375,13.122459411621094,-32.13608169555664,-1.460484266281128
1700958585578807800,5.932807861328125,9.65794563293457,-34.14585494995117,2.5098581314086914
1700958585595790000,5.9497900390625,6.233061790466309,-35.12555694580078,5.077922344207764
1700958585612793900,5.9667939453125,4.00766658782959,-32.99247741699219,1.3634850978851318
1700958585629783800,5.98378369140625,5.0683183670043945,-30.459014892578125,-2.7560086250305176
1700958585646782700,6.00078271484375,7.892367839813232,-29.19875717163086,-1.7065703868865967
1700958585663773200,6.017773193359375,9.384906768798828,-28.078920364379883,5.010873794555664
1700958585680766200,6.03476611328125,7.563958168029785,-26.19101333618164,13.135880470275879
1700958585697748500,6.05174853515625,2.008664608001709,-23.12298583984375,17.56847381591797
1700958585714752800,6.068752685546875,-2.4192824363708496,-19.844507217407227,17.633033752441406
1700958585731745500,6.08574560546875,-2.653872013092041,-18.387348175048828,18.562185287475586
1700958585748738800,6.10273876953125,-3.4884543418884277,-17.50588607788086,22.275352478027344
1700958585765731800,6.11973193359375,1.7045867443084717,-11.60158920288086,35.299781799316406
1700958585782722600,6.13672265625,5.181637763977051,-1.4469091892242432,51.81671142578125
1700958585799720700,6.153720703125,8.843571662902832,6.84681510925293,57.746925354003906
1700958585816711200,6.170711181640625,10.572593688964844,14.601877212524414,49.12604522705078
1700958585833704000,6.187703857421875,5.5163092613220215,18.84927749633789,29.949810028076172
1700958585850697700,6.20469775390625,-2.1976635456085205,18.710201263427734,16.08771514892578
1700958585867686400,6.221686279296875,-5.497261047363281,16.58375358581543,7.588383674621582
1700958585884683800,6.238683837890625,-3.437119245529175,16.809297561645508,-1.6056313514709473
1700958585901676800,6.2556767578125,1.7422246932983398,18.66419792175293,-5.629096508026123
1700958585918670300,6.27267041015625,5.221060276031494,21.28432846069336,-5.741210460662842
1700958585935663000,6.2896630859375,1.4111149311065674,22.434206008911133,-8.237861633300781
1700958585952656100,6.30665625,-4.461578369140625,22.653911590576172,-12.990235328674316
1700958585969647900,6.32364794921875,-7.122739791870117,23.1296329498291,-16.350481033325195
1700958585986644000,6.34064404296875,-5.854750633239746,23.043493270874023,-12.907122611999512
1700958586003636000,6.357635986328125,-2.705263614654541,21.728954315185547,-2.011836051940918
1700958586020628700,6.374628662109375,-0.19664382934570312,19.4443416595459,9.897013664245605
1700958586037627000,6.391626953125,0.06474447250366211,15.740354537963867,17.826770782470703
1700958586054615300,6.408615234375,0.6355974674224854,11.80058765411377,21.79473876953125
1700958586071608300,6.4256083984375,0.8487852811813354,6.761281967163086,22.54529571533203
1700958586088586800,6.442586669921875,3.488673686981201,5.733392238616943,24.381986618041992
1700958586105586000,6.4595859375,1.6903613805770874,6.7195024490356445,30.888004302978516
1700958586122591700,6.476591796875,-2.460190773010254,2.131762981414795,38.89330291748047
1700958586139578600,6.49357861328125,-3.6264569759368896,-4.397153377532959,37.505775451660156
1700958586156574000,6.510573974609375,1.30375075340271,-12.231860160827637,28.89214515686035
1700958586173565400,6.5275654296875,11.039283752441406,-20.619564056396484,18.236488342285156
1700958586190561500,6.5445615234375,15.114606857299805,-25.350563049316406,6.691278457641602
1700958586207553000,6.561552978515625,14.234442710876465,-27.68158721923828,-1.1490164995193481
1700958586224546300,6.57854638671875,8.454414367675781,-28.18325424194336,-3.186338424682617
1700958586241539000,6.5955390625,2.5320749282836914,-26.71074867248535,-1.1470997333526611
1700958586258522000,6.612522216796875,1.6902449131011963,-28.069305419921875,5.670478343963623
1700958586275525600,6.629525634765625,8.595579147338867,-30.63843536376953,7.008777618408203
1700958586292515000,6.64651513671875,16.083778381347656,-30.377304077148438,0.7133567333221436
1700958586309515800,6.663515869140625,16.773656845092773,-28.714426040649414,-4.843143939971924
1700958586326505200,6.680505126953125,12.269805908203125,-26.710948944091797,-4.812555313110352
1700958586343495700,6.69749560546875,5.882996559143066,-24.689085006713867,2.31082820892334
1700958586360494000,6.714494140625,1.2694103717803955,-21.737600326538086,9.582324981689453
1700958586377484300,6.731484375,1.8206381797790527,-17.461257934570312,14.381528854370117
1700958586394465300,6.74846533203125,1.814420461654663,-13.934331893920898,19.995075225830078
1700958586411460600,6.765460693359375,-4.405555725097656,-11.211408615112305,21.922775268554688
1700958586428458500,6.78245849609375,-7.893834114074707,-4.803684711456299,20.820117950439453
1700958586445449200,6.79944921875,-1.1777620315551758,-0.3335380554199219,27.357681274414062
1700958586462442000,6.81644189453125,9.014448165893555,3.5291860103607178,48.49341583251953
1700958586479433000,6.833432861328125,13.422269821166992,9.902467727661133,58.41774368286133
1700958586496425700,6.85042578125,8.278910636901855,17.27997398376465,30.235353469848633
1700958586513425200,6.867425048828125,-0.49677038192749023,16.801570892333984,7.142342567443848
1700958586530414600,6.88441455078125,-1.9441015720367432,14.216524124145508,-1.0855073928833008
1700958586547410400,6.901410400390625,1.1782894134521484,14.220882415771484,-4.236908912658691
1700958586564399000,6.918399169921875,5.052054405212402,16.21795082092285,-6.837080955505371
1700958586581395500,6.9353955078125,6.043045997619629,19.161169052124023,-6.028141021728516
1700958586598386400,6.952386474609375,2.8888375759124756,22.221803665161133,-7.009931564331055
1700958586615378700,6.969378662109375,-2.679201364517212,23.358800888061523,-9.78126335144043
1700958586632371200,6.98637109375,-3.32344651222229,22.90424919128418,-10.91571044921875
1700958586649376500,7.00337646484375,1.2934556007385254,20.93113136291504,-7.820112228393555
1700958586666368800,7.02036865234375,7.353320598602295,19.11427879333496,-2.2627015113830566
1700958586683360500,7.037360595703125,8.529542922973633,16.63631820678711,6.261174201965332
1700958586700343300,7.05434326171875,4.736586093902588,14.594889640808105,12.776845932006836
1700958586717347000,7.07134716796875,0.31512725353240967,12.127056121826172,20.544097900390625
1700958586734345700,7.088345703125,0.022599220275878906,9.24356460571289,24.61583709716797
1700958586751333600,7.105333740234375,7.324456691741943,9.278639793395996,27.32666778564453
1700958586768326700,7.12232666015625,9.504551887512207,5.210708141326904,35.28922653198242
1700958586785319400,7.1393193359375,7.1134419441223145,0.1622304916381836,37.68595504760742
1700958586802311000,7.156310791015625,1.4188309907913208,-5.772188186645508,34.78354263305664
1700958586819306000,7.173305908203125,-2.0977602005004883,-10.894786834716797,27.90103530883789
1700958586836299000,7.190299072265625,-2.108081340789795,-17.368240356445312,20.580060958862305
1700958586853291800,7.207291748046875,2.2522940635681152,-25.107074737548828,11.234410285949707
1700958586870285300,7.224285400390625,11.925285339355469,-29.989065170288086,0.7193710207939148
1700958586887278600,7.241278564453125,16.92274284362793,-32.49025344848633,-5.503917217254639
1700958586904271600,7.258271728515625,13.747376441955566,-34.49311828613281,-5.626870155334473
1700958586921264600,7.2752646484375,9.478739738464355,-37.44389343261719,-0.28280752897262573
1700958586938243800,7.292243896484375,7.851154327392578,-36.96697998046875,1.0969038009643555
1700958586955247000,7.3092470703125,8.108818054199219,-34.85354995727539,-0.6057448387145996
1700958586972244500,7.326244384765625,8.185213088989258,-32.70194625854492,0.8175556659698486
1700958586989236700,7.34323681640625,7.531904220581055,-30.979366302490234,6.560947418212891
1700958587006230500,7.36023046875,5.406886577606201,-29.438682556152344,13.714177131652832
1700958587023213800,7.3772138671875,2.478346824645996,-25.952102661132812,16.98057746887207
1700958587040216600,7.394216552734375,-0.48316478729248047,-21.983463287353516,20.054576873779297
1700958587057209600,7.411209716796875,-3.652141571044922,-18.414836883544922,21.256275177001953
1700958587074192400,7.4281923828125,-4.326004981994629,-11.30186653137207,22.43340492248535
1700958587091196200,7.445196044921875,-0.018863201141357422,-7.521932601928711,31.0238037109375
1700958587108189200,7.462189208984375,6.5622100830078125,-4.17991828918457,47.219078063964844
1700958587125179100,7.47917919921875,14.111776351928711,3.30865478515625,60.359397888183594
1700958587142178300,7.49617822265625,16.344362258911133,15.17070198059082,39.83053970336914
1700958587159168500,7.51316845703125,6.990103721618652,20.286237716674805,20.67020034790039
1700958587176161500,7.53016162109375,-0.8300411701202393,20.608911514282227,14.598411560058594
1700958587193154300,7.547154296875,-1.575650691986084,19.938217163085938,10.041604042053223
1700958587210148000,7.564148193359375,1.5124914646148682,19.809133529663086,8.761724472045898
1700958587227141000,7.58114111328125,5.978775501251221,22.33542251586914,4.298138618469238
1700958587244134000,7.5981337890625,3.3954596519470215,23.64335823059082,-2.711002826690674
1700958587261127000,7.615126953125,-2.5830745697021484,24.19296646118164,-6.715954780578613
1700958587278120400,7.632120361328125,-5.083451271057129,23.824548721313477,-6.848555564880371
1700958587295103000,7.64910302734375,-1.4273048639297485,23.081724166870117,-3.092377185821533
1700958587312113000,7.66611279296875,5.321528434753418,21.68603515625,5.465695381164551
1700958587329097500,7.683097412109375,8.558101654052734,17.80621910095215,12.933918952941895
1700958587346097700,7.70009765625,9.033310890197754,12.953384399414062,17.264739990234375
1700958587363086000,7.717086181640625,6.164643287658691,7.70676851272583,21.74338722229004
1700958587380079000,7.7340791015625,5.982541084289551,4.027090549468994,27.377765655517578
1700958587397072000,7.75107177734375,9.15388011932373,2.1103596687316895,33.55763626098633
1700958587414052000,7.768052001953125,8.810197830200195,-1.4688701629638672,36.450592041015625
1700958587431058700,7.78505859375,5.8915581703186035,-6.017036437988281,35.95420455932617
1700958587448051500,7.802051513671875,1.14518141746521,-9.88398265838623,32.43703842163086
1700958587465044500,7.81904443359375,-1.0330510139465332,-13.655889511108398,25.984962463378906
1700958587482038300,7.836038330078125,1.7095469236373901,-20.502334594726562,19.20267677307129
1700958587499031000,7.853031005859375,7.278351306915283,-26.865238189697266,9.942737579345703
1700958587516024300,7.8700244140625,13.861454963684082,-29.177696228027344,-0.9061295390129089
1700958587533017600,7.887017578125,12.327003479003906,-29.893722534179688,-7.085487365722656
1700958587550007600,7.904007568359375,7.137394905090332,-29.841217041015625,-7.446291923522949
1700958587566989300,7.9209892578125,6.013354301452637,-31.971681594848633,-3.195247173309326
1700958587583997000,7.937996826171875,8.548742294311523,-34.21209716796875,0.19018232822418213
1700958587600989400,7.954989501953125,10.98017692565918,-34.77204132080078,-0.2381899356842041
1700958587617990700,7.97199072265625,11.409146308898926,-33.55153274536133,-4.046855926513672
1700958587634963000,7.988962890625,9.932069778442383,-31.243356704711914,-6.570180892944336
1700958587651972000,8.00597216796875,8.543988227844238,-30.53491973876953,-1.531461238861084
1700958587668962000,8.022962158203125,5.19232177734375,-29.324892044067383,10.498733520507812
1700958587685953300,8.039953369140624,-1.0260343551635742,-25.44618034362793,22.365890502929688
1700958587702951200,8.056951171875,-3.965817928314209,-19.652727127075195,25.67267608642578
1700958587719942000,8.07394189453125,-5.350568771362305,-12.706338882446289,17.771324157714844
1700958587736934700,8.0909345703125,0.4015486240386963,-8.498552322387695,21.350845336914062
1700958587753930000,8.107929931640625,10.808012008666992,-7.016537189483643,40.26667785644531
1700958587770915300,8.124915283203125,8.1016845703125,-0.10406893491744995,66.1300048828125
1700958587787910000,8.141909912109375,7.214494228363037,10.252309799194336,52.31621551513672
1700958587804893000,8.158892822265624,8.473953247070312,15.413009643554688,22.46786117553711
1700958587821901000,8.175901123046875,3.6563973426818848,17.095722198486328,8.423956871032715
1700958587838887700,8.1928876953125,-3.6883695125579834,15.936424255371094,6.617300987243652
1700958587855886800,8.209886962890625,-5.038352966308594,17.0555419921875,2.164645195007324
1700958587872879600,8.226879638671875,-0.856273889541626,17.8835391998291,-2.2516446113586426
1700958587889870800,8.243870849609374,4.792093276977539,18.485694885253906,-2.562753200531006
1700958587906866400,8.260866455078125,6.549844741821289,19.989736557006836,-2.529524326324463
1700958587923861500,8.277861572265625,2.2144553661346436,19.811195373535156,-3.5171027183532715
1700958587940852500,8.2948525390625,-1.8193814754486084,19.308141708374023,-6.471789360046387
1700958587957845800,8.311845703125,-2.091186046600342,18.44060516357422,-6.902371406555176
1700958587974828300,8.328828369140625,2.142472505569458,17.36880874633789,-2.4064273834228516
1700958587991820800,8.34582080078125,6.422196388244629,16.219043731689453,3.6959524154663086
1700958588008824600,8.362824462890625,6.875618934631348,12.986994743347168,11.736541748046875
1700958588025818400,8.379818359375,3.8250186443328857,9.653411865234375,17.06693458557129
1700958588042811100,8.39681103515625,1.3364067077636719,7.5298357009887695,19.11247444152832
1700958588059804200,8.41380419921875,3.717463254928589,5.973235607147217,22.722558975219727
1700958588076797200,8.430797119140625,4.209020137786865,3.5405426025390625,27.87205696105957
1700958588093790700,8.447790771484375,0.5034732818603516,-0.5128440856933594,33.19558334350586
1700958588110781200,8.46478125,-1.941192388534546,-8.518352508544922,35.034271240234375
1700958588127779300,8.481779296875,3.394155502319336,-17.241867065429688,29.27349281311035
1700958588144769800,8.498769775390626,11.15402603149414,-22.484230041503906,17.082422256469727
1700958588161763300,8.515763427734376,13.490612030029297,-24.562442779541016,5.052760124206543
1700958588178756000,8.532756103515625,10.142565727233887,-26.188570022583008,-1.522399663925171
1700958588195749000,8.5497490234375,3.5885844230651855,-28.65288734436035,-4.1901960372924805
1700958588212742400,8.566742431640625,-1.434067964553833,-31.708759307861328,-5.81978178024292
1700958588229736200,8.583736083984375,-3.1537058353424072,-32.93968963623047,-9.223494529724121
1700958588246728200,8.600728271484375,-0.8436691761016846,-32.85450744628906,-12.991754531860352
1700958588263722000,8.617721923828125,3.9215104579925537,-31.318470001220703,-14.6063232421875
1700958588280714800,8.63471484375,7.084895133972168,-30.09740447998047,-10.590845108032227
1700958588297698300,8.6516982421875,6.5181989669799805,-29.174419403076172,-2.9386343955993652
1700958588314701000,8.668701171875,3.4445407390594482,-27.572580337524414,5.259366512298584
1700958588331694600,8.685694580078126,0.03385448455810547,-25.260347366333008,12.688451766967773
1700958588348687000,8.70268701171875,-3.7786664962768555,-19.32632064819336,19.24722671508789
1700958588365681000,8.719680908203125,-4.789510250091553,-13.293663024902344,19.920654296875
1700958588382673700,8.736673583984375,-1.448934555053711,-8.099763870239258,20.911327362060547
1700958588399666700,8.753666748046875,7.931142807006836,-8.555404663085938,38.19902801513672
1700958588416659700,8.77065966796875,12.380346298217773,-1.130739450454712,51.138328552246094
1700958588433653500,8.787653564453125,14.909680366516113,5.693449020385742,47.54551696777344
1700958588450645500,8.8046455078125,12.745980262756348,11.605331420898438,27.339759826660156
1700958588467639800,8.821639892578125,6.364200592041016,14.875260353088379,8.773776054382324
1700958588484632300,8.83863232421875,5.805844783782959,16.234487533569336,3.800858497619629
1700958588501626000,8.855626220703124,5.502749443054199,17.124980926513672,3.018177032470703
1700958588518614500,8.872614501953125,4.426208019256592,18.94610023498535,0.8821296691894531
1700958588535616000,8.889615966796875,1.7794137001037598,21.503419876098633,-4.756277561187744
1700958588552604700,8.906604736328125,-1.2550729513168335,25.073017120361328,-12.57498836517334
1700958588569598500,8.923598388671875,-4.107405662536621,25.707061767578125,-13.631132125854492
1700958588586591200,8.94059130859375,-5.006387233734131,23.7409610748291,-9.228422164916992
1700958588603587800,8.957587890625,-3.748826503753662,21.17927360534668,-3.2406764030456543
1700958588620574000,8.974573974609376,0.15917205810546875,18.467416763305664,0.6329841613769531
1700958588637569800,8.99156982421875,4.035828113555908,16.73492431640625,4.419833183288574
1700958588654563800,9.008563720703124,3.5147902965545654,14.508011817932129,11.321521759033203
1700958588671556900,9.025556884765624,0.14936232566833496,10.618244171142578,19.69074249267578
1700958588688549600,9.042549560546876,-0.5223793983459473,5.57533073425293,25.091346740722656
1700958588705543700,9.059543701171876,4.50727653503418,3.809300422668457,25.097490310668945
1700958588722536400,9.076536376953126,9.520646095275879,4.120298385620117,26.3607234954834
1700958588739529200,9.093529296875,9.458426475524902,2.381281852722168,31.789520263671875
1700958588756522200,9.110522216796875,5.420200347900391,-2.487946033477783,34.20063400268555
1700958588773517000,9.12751708984375,2.981327533721924,-7.7956013679504395,29.304367065429688
1700958588790507800,9.1445078125,4.967515468597412,-13.928756713867188,21.961488723754883
1700958588807502000,9.161502197265625,8.683375358581543,-20.21340560913086,14.09736442565918
1700958588824494600,9.17849462890625,11.641648292541504,-24.905027389526367,6.265744209289551
1700958588841488400,9.19548828125,10.452216148376465,-28.130428314208984,0.8599432706832886
1700958588858481200,9.212481201171874,7.422199726104736,-30.093576431274414,-2.0882229804992676
1700958588875474400,9.229474365234376,5.617399215698242,-31.081432342529297,-2.8345255851745605
1700958588892467500,9.246467529296876,4.611862659454346,-33.098365783691406,-1.3954391479492188
1700958588909460700,9.263460693359375,4.111097812652588,-33.03446960449219,-2.858036756515503
1700958588926453500,9.28045361328125,4.081860065460205,-31.22677230834961,-5.739965438842773
1700958588943447000,9.297447021484375,4.33136510848999,-29.40270233154297,-7.035799026489258
1700958588960441300,9.31444140625,4.128954887390137,-28.836933135986328,-1.5694644451141357
1700958588977433600,9.33143359375,2.6749978065490723,-26.899612426757812,9.72625732421875
1700958588994426400,9.34842626953125,0.39635372161865234,-22.224971771240234,18.698102951049805
1700958589011419600,9.365419677734375,-2.9160590171813965,-16.452207565307617,14.847312927246094
1700958589028412200,9.382412109375,-5.165284633636475,-11.510736465454102,8.342294692993164
1700958589045406000,9.399406005859374,-1.2585868835449219,-7.393257141113281,19.83305549621582
1700958589062398700,9.416398681640626,5.0560197830200195,-4.965109825134277,49.3942985534668
1700958589079374600,9.43337451171875,11.963184356689453,5.178197860717773,52.173343658447266
1700958589096384500,9.450384521484375,21.710844039916992,15.57800579071045,35.380027770996094
1700958589113378600,9.467378662109375,17.709827423095703,17.863889694213867,25.689754486083984
1700958589130371000,9.48437109375,8.058496475219727,18.19566535949707,15.080852508544922
1700958589147364600,9.501364501953125,4.544163703918457,17.446903228759766,4.497092247009277
1700958589164354800,9.518354736328124,3.0295774936676025,17.132640838623047,0.41434478759765625
1700958589181353700,9.535353759765625,0.32462334632873535,17.702409744262695,-2.702925682067871
1700958589198341400,9.55234130859375,-3.968097448348999,18.85955047607422,-6.344498157501221
1700958589215339300,9.56933935546875,-7.50413703918457,20.676010131835938,-8.747138977050781
1700958589232329700,9.586329833984376,-7.88123083114624,20.590486526489258,-8.79044246673584
1700958589249321500,9.603321533203125,-4.586637496948242,19.437278747558594,-8.435378074645996
1700958589266318000,9.620318115234374,-0.1122591495513916,18.307823181152344,-6.491655349731445
1700958589283297300,9.63729736328125,4.156764984130859,17.908172607421875,-2.056370258331299
1700958589300304000,9.654303955078126,5.343760967254639,17.030170440673828,4.785935401916504
1700958589317293600,9.67129345703125,4.67827033996582,14.580428123474121,13.906041145324707
1700958589334281000,9.688281005859375,5.550214767456055,11.208538055419922,18.53242301940918
1700958589351282000,9.705281982421875,6.784570693969727,7.098215579986572,20.707508087158203
1700958589368275000,9.72227490234375,8.728068351745605,5.915404796600342,21.975662231445312
1700958589385268500,9.7392685546875,8.307928085327148,3.693392276763916,26.166170120239258
1700958589402261200,9.75626123046875,6.760073661804199,1.3591628074645996,27.40982437133789
1700958589419254500,9.773254638671874,1.4248840808868408,-2.581801414489746,30.450105667114258
1700958589436247600,9.79024755859375,-1.6682043075561523,-8.199511528015137,29.967056274414062
1700958589453241000,9.807240966796876,3.51534366607666,-16.699710845947266,22.56525993347168
1700958589470233600,9.824233642578125,13.002906799316406,-24.05887222290039,11.052906036376953
1700958589487227000,9.841226806640625,17.532060623168945,-27.552579879760742,-0.11560630798339844
1700958589504219600,9.8582197265625,13.947700500488281,-29.26775360107422,-6.251667022705078
1700958589521213700,9.875213623046875,7.8397016525268555,-29.89126205444336,-6.807077407836914
1700958589538206500,9.89220654296875,4.822334289550781,-30.202463150024414,-5.704543113708496
1700958589555185000,9.909184814453125,6.8642072677612305,-29.64454460144043,-7.159883499145508
1700958589572196400,9.9261962890625,10.89234733581543,-29.202234268188477,-8.436180114746094
1700958589589186000,9.94318603515625,12.666116714477539,-29.217519760131836,-6.138554096221924
1700958589606179000,9.960178955078124,10.310969352722168,-28.374279022216797,-0.7903094291687012
1700958589623171800,9.977171875,6.31716251373291,-25.881746292114258,3.5305709838867188
1700958589640164600,9.99416455078125,3.9892630577087402,-22.97420883178711,6.461277008056641
1700958589657158400,10.011158447265625,1.4263012409210205,-20.18248176574707,9.786373138427734
1700958589674141000,10.028140869140625,-3.3026065826416016,-17.443758010864258,16.66828155517578
1700958589691140900,10.045140869140624,-5.49264669418335,-11.76542854309082,18.35077476501465
1700958589708137700,10.0621376953125,-3.230334758758545,-5.114691257476807,22.080089569091797
1700958589725131500,10.079131591796875,-1.1023454666137695,-2.7687535285949707,34.3600959777832
1700958589742123800,10.096123779296875,2.1237361431121826,0.5106325149536133,42.12897491455078
1700958589759117000,10.113116943359374,7.388648986816406,5.729867458343506,39.491275787353516
1700958589776099300,10.130099365234376,9.874189376831055,10.106074333190918,29.00994873046875
1700958589793100800,10.147100830078125,8.838817596435547,12.67775821685791,16.73617172241211
1700958589810096400,10.164096435546876,7.3012895584106445,13.925570487976074,6.599839210510254
1700958589827092200,10.18109228515625,7.1908159255981445,15.4070405960083,0.16324996948242188
1700958589844082200,10.198082275390625,7.0871686935424805,18.08078384399414,-1.4883513450622559
1700958589861076000,10.215075927734375,6.612137794494629,20.330034255981445,-0.44704723358154297
1700958589878056200,10.23205615234375,3.7852752208709717,22.818359375,-1.7832708358764648
1700958589895054800,10.249054931640625,-0.33033037185668945,24.8553524017334,-6.410172462463379
1700958589912052200,10.26605224609375,-0.7790565490722656,25.039838790893555,-8.28979206085205
1700958589929038600,10.28303857421875,3.533889055252075,23.760786056518555,-4.361122131347656
1700958589946034000,10.300033935546875,9.069204330444336,20.88965606689453,3.0435047149658203
1700958589963028000,10.317028076171875,10.037391662597656,17.33531379699707,9.726393699645996
1700958589980020000,10.33402001953125,6.367739677429199,12.525769233703613,14.632234573364258
1700958589997011000,10.351010986328125,2.5817184448242188,7.774956703186035,17.770263671875
1700958590014002700,10.368002685546875,1.952184796333313,4.658461093902588,21.696941375732422
1700958590030999300,10.384999267578126,4.227425575256348,5.152327060699463,26.294775009155273
1700958590047993000,10.4019931640625,4.511211395263672,2.880405902862549,32.567928314208984
1700958590064987000,10.41898681640625,1.2411105632781982,-0.5592350959777832,36.24919128417969
1700958590081977300,10.435977294921875,-3.373636484146118,-5.679266929626465,35.01511764526367
1700958590098971600,10.4529716796875,-2.6178343296051025,-12.106053352355957,27.339109420776367
1700958590115963400,10.46996337890625,4.190723419189453,-20.536958694458008,17.335800170898438
1700958590132962800,10.486962890625,11.58813762664795,-26.884967803955078,4.963801860809326
1700958590149950200,10.5039501953125,15.454329490661621,-29.640335083007812,-4.8900861740112305
1700958590166942000,10.52094189453125,10.978314399719238,-31.579837799072266,-8.792474746704102
1700958590183947300,10.537947265625,4.1694207191467285,-32.59064483642578,-8.71801471710205
1700958590200938800,10.554938720703126,2.5230484008789062,-33.42572021484375,-6.54670524597168
1700958590217935400,10.571935302734374,5.089925765991211,-32.61433410644531,-6.4871978759765625
1700958590234921700,10.588921630859375,6.934486389160156,-31.079538345336914,-7.794669151306152
1700958590251920000,10.605919921875,7.683741569519043,-29.54535675048828,-8.17838191986084
1700958590268910800,10.622910888671875,8.135810852050781,-29.469074249267578,-4.877130508422852
1700958590285900300,10.639900390625,7.741779327392578,-30.03618621826172,1.9696664810180664
1700958590302900500,10.656900390625,5.569519996643066,-29.276798248291016,14.118106842041016
1700958590319890000,10.673889892578124,0.4167959690093994,-24.305648803710938,23.29181480407715
1700958590336883500,10.690883544921874,-5.20750617980957,-20.643314361572266,18.86804962158203
1700958590353876200,10.707876220703126,-3.7140045166015625,-17.999176025390625,10.494736671447754
1700958590370866700,10.72486669921875,8.945562362670898,-18.036531448364258,19.64423370361328
1700958590387864800,10.74186474609375,19.462604522705078,-15.785111427307129,45.79505920410156
1700958590404847000,10.75884716796875,22.83404541015625,-2.5928730964660645,63.591915130615234
1700958590421846800,10.7758466796875,16.320213317871094,8.934588432312012,44.2841796875
1700958590438842000,10.792842041015625,8.81169605255127,13.74700927734375,21.48699951171875
1700958590455835000,10.8098349609375,7.159084320068359,14.969406127929688,10.283732414245605
1700958590472828400,10.826828369140625,7.668377876281738,16.07678985595703,3.138463020324707
1700958590489819000,10.84381884765625,6.667001247406006,18.19704818725586,-2.4858479499816895
1700958590506816800,10.860816650390625,4.9702911376953125,18.554168701171875,-6.6461896896362305
1700958590523807200,10.87780712890625,2.905017852783203,19.775726318359375,-9.816486358642578
1700958590540801000,10.894801025390626,-2.3830974102020264,22.545724868774414,-11.706113815307617
1700958590557791700,10.911791748046875,-7.736581802368164,24.910249710083008,-8.315738677978516
1700958590574778400,10.9287783203125,-7.475369930267334,25.077009201049805,1.5347251892089844
1700958590591779800,10.94577978515625,-2.9789724349975586,23.377033233642578,10.847171783447266
1700958590608770800,10.962770751953125,1.3183634281158447,20.19723129272461,13.013057708740234
1700958590625768700,10.979768798828125,3.294156074523926,16.28933334350586,11.123442649841309
1700958590642759200,10.99675927734375,2.783797264099121,12.004501342773438,11.44057559967041
1700958590659749600,11.01374951171875,1.3750249147415161,8.451529502868652,17.845346450805664
1700958590676748500,11.03074853515625,-1.3625434637069702,4.299135208129883,26.522422790527344
1700958590693739000,11.047739013671874,1.8397603034973145,-0.17567086219787598,31.696758270263672
1700958590710729200,11.064729248046875,8.579490661621094,-3.173220157623291,35.18171310424805
1700958590727726300,11.081726318359374,10.981832504272461,-7.930875778198242,37.97662353515625
1700958590744719600,11.0987197265625,11.54948616027832,-11.626937866210938,34.52641677856445
1700958590761711000,11.115711181640625,13.314615249633789,-16.853031158447266,28.115219116210938
1700958590778694000,11.13269384765625,16.031946182250977,-22.018075942993164,18.25853729248047
1700958590795695000,11.149695068359375,15.298137664794922,-26.015972137451172,6.587199687957764
1700958590812680400,11.166680419921875,10.818328857421875,-28.449604034423828,-2.0895981788635254
1700958590829682000,11.183681884765624,4.8386735916137695,-26.52973747253418,-9.459624290466309
1700958590846679000,11.200678955078125,2.0782339572906494,-25.234275817871094,-10.366682052612305
1700958590863669800,11.217669677734374,4.141046524047852,-27.317678451538086,-8.32691478729248
1700958590880663600,11.23466357421875,7.714108467102051,-30.107227325439453,-6.353915214538574
1700958590897656300,11.25165625,7.276268005371094,-30.03216552734375,-9.557886123657227
1700958590914649300,11.2686494140625,4.607518196105957,-28.375993728637695,-13.255603790283203
1700958590931639600,11.2856396484375,2.366875171661377,-26.356277465820312,-13.759275436401367
1700958590948638200,11.30263818359375,4.412177085876465,-25.266265869140625,-9.360270500183105
1700958590965628700,11.319628662109375,8.37515926361084,-25.038150787353516,1.420572280883789
1700958590982622200,11.336622314453125,8.977561950683594,-23.487384796142578,11.878828048706055
1700958590999614700,11.35361474609375,4.87786340713501,-19.690217971801758,12.659212112426758
1700958591016608500,11.3706083984375,-2.8943262100219727,-15.072461128234863,10.190793991088867
1700958591033593900,11.38759375,-2.402130603790283,-11.362541198730469,21.856346130371094
1700958591050594300,11.40459423828125,7.259393692016602,-9.421758651733398,45.06433868408203
1700958591067587300,11.42158740234375,16.470706939697266,-0.27735257148742676,47.19734191894531
1700958591084572400,11.438572509765624,17.923398971557617,8.111003875732422,37.09468078613281
1700958591101574000,11.455573974609376,12.639546394348145,11.655781745910645,26.9471435546875
1700958591118564400,11.472564453125,6.41668176651001,13.340699195861816,16.504125595092773
1700958591135562200,11.489562255859376,2.732862949371338,14.12614631652832,5.989269256591797
1700958591152548600,11.506548583984374,1.7905700206756592,15.319342613220215,-1.2845163345336914
1700958591169550600,11.523550537109376,2.63826584815979,17.852859497070312,-4.4135541915893555
1700958591186539300,11.540539306640625,2.09047269821167,20.47577667236328,-4.270888805389404
1700958591203532000,11.557531982421875,-1.4621119499206543,23.926958084106445,-4.6210222244262695
1700958591220522500,11.5745224609375,-5.443658828735352,26.083229064941406,-4.938791275024414
1700958591237522200,11.591522216796875,-5.422751426696777,25.011394500732422,-4.245610237121582
1700958591254516700,11.608516845703125,-1.1869359016418457,21.951784133911133,-2.656249523162842
1700958591271502300,11.62550244140625,4.71620512008667,18.786903381347656,0.40452098846435547
1700958591288500500,11.64250048828125,7.899818420410156,17.08118438720703,5.846566200256348
1700958591305491000,11.659490966796875,6.775402545928955,15.703975677490234,14.681839942932129
1700958591322484200,11.676484130859375,5.957074165344238,12.80245590209961,24.594572067260742
1700958591339477000,11.69347705078125,5.604909896850586,5.467833042144775,30.95391845703125
1700958591356470800,11.710470703125,9.421991348266602,1.0393824577331543,27.085325241088867
1700958591373459700,11.727459716796876,9.822832107543945,-2.5371270179748535,25.37717628479004
1700958591390460700,11.744460693359375,7.439115524291992,-6.608716011047363,26.47998809814453
1700958591407449900,11.761449951171874,2.0853357315063477,-10.039657592773438,25.157970428466797
1700958591424442000,11.778442138671876,-3.6564502716064453,-14.809881210327148,23.260356903076172
1700958591441437200,11.795437255859374,-0.3356776237487793,-21.425411224365234,16.239582061767578
1700958591458418700,11.812418701171875,11.677520751953125,-27.4735164642334,4.875417232513428
1700958591475422000,11.829421875,19.34163475036621,-31.085432052612305,-5.476433753967285
1700958591492416000,11.846416015625,15.112930297851562,-32.665626525878906,-11.621655464172363
1700958591509395500,11.8633955078125,7.89532470703125,-33.142372131347656,-12.81194019317627
1700958591526404400,11.880404296875,5.062862873077393,-32.77681350708008,-10.289348602294922
1700958591543394600,11.89739453125,7.947205543518066,-32.28739929199219,-6.244626998901367
1700958591560388600,11.914388671875,12.050432205200195,-31.454010009765625,-3.1876487731933594
1700958591577378300,11.93137841796875,13.7861967086792,-29.41409683227539,-2.980022668838501
1700958591594377000,11.948376953125,11.73715877532959,-27.492259979248047,0.25942277908325195
1700958591611364600,11.965364501953125,6.718478679656982,-24.76546287536621,7.837630271911621
1700958591628363300,11.98236328125,-0.20859479904174805,-20.10861587524414,17.082744598388672
1700958591645353500,11.999353515625,-4.533657073974609,-15.159289360046387,17.928974151611328
1700958591662346500,12.016346435546875,-0.8012161254882812,-12.913658142089844,12.88890552520752
1700958591679339300,12.03333935546875,1.9066002368927002,-14.733661651611328,12.55974006652832
1700958591696331000,12.0503310546875,1.3064360618591309,-10.470099449157715,18.105770111083984
1700958591713328400,12.067328369140625,3.0068671703338623,-4.507133960723877,36.57249450683594
1700958591730308900,12.084308837890624,3.2947497367858887,3.831812620162964,56.48554611206055
1700958591747315500,12.1013154296875,8.627067565917969,10.77979564666748,51.90266418457031
1700958591764302300,12.11830224609375,15.973569869995117,14.465719223022461,30.565080642700195
1700958591781298400,12.13529833984375,11.358235359191895,14.480777740478516,13.39968490600586
1700958591798287000,12.152287109375,4.254173278808594,14.725654602050781,4.196351051330566
1700958591815289000,12.1692890625,1.0670454502105713,16.044679641723633,0.8811759948730469
1700958591832278000,12.186278076171876,0.9660577774047852,17.289514541625977,0.24505043029785156
1700958591849271000,12.20327099609375,2.0405919551849365,18.213314056396484,-2.5432891845703125
1700958591866264000,12.22026416015625,-1.5983591079711914,19.837072372436523,-7.094367980957031
1700958591883256800,12.2372568359375,-6.64231538772583,21.198488235473633,-9.401705741882324
1700958591900247000,12.2542470703125,-7.254579067230225,20.152605056762695,-8.694489479064941
1700958591917244400,12.271244384765625,-1.2538142204284668,17.9608097076416,-4.32517671585083
1700958591934229000,12.28822900390625,4.902895927429199,15.979981422424316,1.333369255065918
1700958591951229200,12.305229248046874,6.212615966796875,14.522780418395996,5.45319938659668
1700958591968223000,12.322222900390624,2.110285758972168,12.605737686157227,9.717086791992188
1700958591985215700,12.3392158203125,-1.6225333213806152,10.483362197875977,17.090885162353516
1700958592002209300,12.356209228515626,-1.349775791168213,6.830272197723389,26.641773223876953
1700958592019202000,12.3732021484375,2.1962203979492188,3.522357940673828,31.226465225219727
1700958592036195600,12.390195556640625,5.575958728790283,1.6627492904663086,29.211666107177734
1700958592053188600,12.407188720703125,4.291493892669678,-0.274505615234375,28.40170669555664
1700958592070181400,12.424181396484375,0.4528963565826416,-2.5799484252929688,29.45231819152832
1700958592087174100,12.441174072265625,-4.821524620056152,-6.837898254394531,28.734006881713867
1700958592104168000,12.45816796875,-5.949423789978027,-11.172226905822754,22.922565460205078
1700958592121161000,12.475160888671875,-1.5131757259368896,-17.37445831298828,15.345134735107422
1700958592138154200,12.492154296875,8.795068740844727,-22.7310791015625,6.649866104125977
1700958592155136500,12.509136474609376,18.1527156829834,-25.093292236328125,-0.5755901336669922
1700958592172140500,12.526140625,17.438629150390625,-27.198333740234375,-3.8700222969055176
1700958592189133300,12.54313330078125,11.323638916015625,-29.756454467773438,-2.9216744899749756
1700958592206126300,12.560126220703125,6.680497646331787,-31.99120330810547,0.9198555946350098
1700958592223119000,12.577119140625,4.91055154800415,-32.99939727783203,1.7776248455047607
1700958592240113000,12.59411279296875,7.153258323669434,-33.33000183105469,-0.8089451193809509
1700958592257106000,12.61110595703125,9.381551742553711,-32.59825897216797,-4.601512908935547
1700958592274094800,12.6280947265625,9.445646286010742,-31.59422492980957,-5.834996223449707
1700958592291090000,12.64508984375,6.804071426391602,-31.87584114074707,0.16917157173156738
1700958592308087000,12.662087158203125,2.2809224128723145,-30.581911087036133,12.078195571899414
1700958592325078000,12.679078125,-1.8916730880737305,-25.885528564453125,20.757797241210938
1700958592342071300,12.6960712890625,-4.313537120819092,-20.983642578125,22.20653533935547
1700958592359051800,12.7130517578125,-4.77987003326416,-12.93970775604248,21.332176208496094
1700958592376060400,12.730060302734374,-6.031681537628174,-5.405025482177734,26.710512161254883
1700958592393051000,12.74705078125,-2.676457405090332,-2.242582321166992,37.90380096435547
1700958592410041300,12.764041259765625,2.429924488067627,0.4048675000667572,46.977474212646484
1700958592427039200,12.781039306640626,2.1400880813598633,5.700778484344482,49.55947494506836
1700958592444030500,12.798030517578125,-2.49373722076416,12.505182266235352,32.842628479003906
1700958592461011200,12.81501123046875,-4.5466532707214355,15.195256233215332,16.890533447265625
1700958592478007300,12.83200732421875,-1.8363862037658691,15.680014610290527,7.426333427429199
1700958592495008500,12.849008544921874,2.4998865127563477,16.4669132232666,1.9715003967285156
1700958592512002800,12.8660029296875,4.974644660949707,17.841798782348633,-0.21971511840820312
1700958592528995600,12.88299560546875,6.105984687805176,20.406469345092773,-0.7121114730834961
1700958592545996000,12.89999609375,5.092424392700195,22.899145126342773,-0.8831939697265625
1700958592562981600,12.916981689453126,2.2543106079101562,23.303197860717773,-2.010652542114258
1700958592579975400,12.933975341796875,0.11885428428649902,22.12112808227539,-4.319336414337158
1700958592596965600,12.950965576171875,0.44263434410095215,20.39563751220703,-4.698181629180908
1700958592613950700,12.96795068359375,3.167217493057251,19.00337028503418,-1.0557489395141602
1700958592630951400,12.984951416015624,5.714655876159668,16.914295196533203,7.616823196411133
1700958592647950600,13.00195068359375,7.180832386016846,12.890329360961914,16.00829315185547
1700958592664940500,13.0189404296875,6.13167667388916,7.788808822631836,18.48614501953125
1700958592681933600,13.03593359375,4.288652420043945,4.431358337402344,15.752203941345215
1700958592698926600,13.052926513671874,4.969403266906738,4.641374111175537,18.777090072631836
1700958592715920100,13.069920166015624,5.802003860473633,2.822169780731201,28.95845603942871
1700958592732913000,13.086912841796876,3.310070514678955,1.2007851600646973,35.99784851074219
1700958592749897700,13.103897705078126,-4.223438739776611,-3.3845696449279785,38.81560516357422
1700958592766897000,13.12089697265625,-9.148181915283203,-10.38763427734375,32.986846923828125
1700958592783895000,13.13789501953125,-3.7452757358551025,-17.68643569946289,20.11202621459961
1700958592800883000,13.154883056640625,6.292433738708496,-25.14136505126953,7.528505802154541
1700958592817878800,13.171878662109375,14.178874015808105,-28.307716369628906,-3.228940963745117
1700958592834871600,13.18887158203125,13.033184051513672,-29.346099853515625,-9.059046745300293
1700958592851865000,13.205864990234375,5.901519775390625,-29.107742309570312,-10.509408950805664
1700958592868857900,13.22285791015625,3.6382861137390137,-28.917335510253906,-7.336816310882568
1700958592885851100,13.23985107421875,6.16898250579834,-29.96318817138672,-2.5906453132629395
1700958592902844000,13.256843994140626,10.783835411071777,-30.49303436279297,-1.2281359434127808
1700958592919837700,13.273837646484376,13.668649673461914,-29.75025749206543,-3.1252284049987793
1700958592936830500,13.29083056640625,13.035216331481934,-28.058509826660156,-5.473897457122803
1700958592953823500,13.307823486328125,10.324329376220703,-27.026531219482422,-4.167763710021973
1700958592970814700,13.324814697265625,7.3074469566345215,-26.449260711669922,4.010317325592041
1700958592987811300,13.341811279296875,2.8217291831970215,-24.63971710205078,18.22296142578125
1700958593004802600,13.358802490234375,-4.474030017852783,-20.21540069580078,27.188297271728516
1700958593021795800,13.3757958984375,-10.179304122924805,-15.098478317260742,16.480539321899414
1700958593038788900,13.392788818359374,-7.7939348220825195,-9.875887870788574,9.162405014038086
1700958593055782700,13.40978271484375,-0.7875704765319824,-12.528913497924805,28.300189971923828
1700958593072775200,13.426775146484376,4.842998027801514,-11.794318199157715,58.83319854736328
1700958593089768400,13.4437685546875,13.91204833984375,0.9446840286254883,60.237178802490234
1700958593106761200,13.46076123046875,23.90732192993164,11.680477142333984,34.15004348754883
1700958593123755000,13.477755126953125,22.898237228393555,15.450159072875977,15.177485466003418
1700958593140756000,13.494755859375,10.872074127197266,16.652088165283203,5.665358543395996
1700958593157738800,13.51173876953125,5.530830383300781,19.002145767211914,-0.3568429946899414
1700958593174726100,13.52872607421875,6.242870330810547,21.341354370117188,-4.399625301361084
1700958593191727400,13.545727294921875,7.4312357902526855,22.225297927856445,-4.299415111541748
1700958593208717800,13.5627177734375,6.118931293487549,22.951942443847656,-4.992539882659912
1700958593225716000,13.579716064453125,3.304408550262451,22.72078514099121,-7.6300177574157715
1700958593242706000,13.596705810546876,1.9416439533233643,21.728759765625,-8.95254898071289
1700958593259699700,13.61369970703125,2.1403696537017822,19.47856903076172,-5.2104716300964355
1700958593276692700,13.630692626953126,2.6562600135803223,16.57588005065918,2.268413543701172
1700958593293686000,13.64768603515625,2.4473085403442383,14.414798736572266,9.405102729797363
1700958593310675700,13.66467578125,3.2802491188049316,12.327469825744629,16.879592895507812
1700958593327675400,13.68167529296875,5.30783748626709,8.89590072631836,20.75950050354004
1700958593344665300,13.698665283203125,6.17763614654541,5.1047163009643555,23.733421325683594
1700958593361646600,13.715646484375,6.063035011291504,6.9732666015625,26.093719482421875
1700958593378652700,13.732652587890625,5.273022651672363,3.9948220252990723,33.66837692260742
1700958593395644700,13.749644775390625,3.5071942806243896,-0.0041904449462890625,35.041629791259766
1700958593412620000,13.7666201171875,1.2534584999084473,-4.028739929199219,30.626867294311523
1700958593429620200,13.7836201171875,1.6801033020019531,-9.032567977905273,23.916627883911133
1700958593446621700,13.80062158203125,5.62755012512207,-15.793096542358398,16.46949005126953
1700958593463616800,13.81761669921875,11.582539558410645,-22.838932037353516,9.365337371826172
1700958593480606500,13.8346064453125,15.791111946105957,-26.807241439819336,3.1339309215545654
1700958593497600800,13.851600830078125,13.227608680725098,-28.879173278808594,-0.4582143723964691
1700958593514586400,13.86858642578125,8.273622512817383,-29.136661529541016,-2.337951898574829
1700958593531584500,13.88558447265625,5.958427906036377,-28.657901763916016,-2.6264054775238037
1700958593548580600,13.90258056640625,6.606281280517578,-28.59463119506836,-1.5886824131011963
1700958593565571300,13.9195712890625,7.491508483886719,-28.148662567138672,-0.4711984395980835
1700958593582564000,13.936564208984375,7.430441856384277,-27.08765411376953,0.36458349227905273
1700958593599560200,13.953560302734376,7.269091606140137,-25.546844482421875,1.3246979713439941
1700958593616550400,13.97055029296875,6.365181922912598,-23.34556007385254,2.8385963439941406
1700958593633539000,13.9875390625,4.0997419357299805,-21.07109832763672,6.122495651245117
1700958593650530800,14.00453076171875,-0.4282522201538086,-19.758695602416992,14.643905639648438
1700958593667530500,14.021530517578125,-5.666790008544922,-17.716705322265625,20.748916625976562
1700958593684518400,14.038518310546875,-6.242354393005371,-12.298208236694336,18.607656478881836
1700958593701512000,14.055511962890625,-5.246079921722412,-6.3355231285095215,20.75579071044922
1700958593718506500,14.072506591796875,-6.25577449798584,-1.561679720878601,36.316368103027344
1700958593735507000,14.0895068359375,-2.0507569313049316,0.7149317264556885,53.00581359863281
1700958593752497700,14.10649755859375,14.004549026489258,7.83884859085083,48.08182907104492
1700958593769495300,14.123495361328125,19.640493392944336,12.52306842803955,26.430622100830078
1700958593786485800,14.14048583984375,15.047805786132812,12.377161026000977,9.84773063659668
1700958593803479600,14.1574794921875,7.328464031219482,12.877142906188965,0.4007425308227539
1700958593820469800,14.1744697265625,1.0473082065582275,14.917417526245117,-4.23436975479126
1700958593837467600,14.191467529296874,1.7095749378204346,16.49253273010254,-4.910552978515625
1700958593854458400,14.208458251953125,7.532764434814453,17.838815689086914,-5.4187164306640625
1700958593871449300,14.225449462890625,11.756059646606445,18.930400848388672,-6.167010307312012
1700958593888447200,14.242447265625,9.949902534484863,18.734195709228516,-8.011929512023926
1700958593905437700,14.259437744140625,5.76838493347168,17.85498046875,-10.402932167053223
1700958593922431000,14.276430908203125,3.566122531890869,17.251407623291016,-8.973810195922852
1700958593939424300,14.29342431640625,3.8443620204925537,16.04571533203125,-1.890554428100586
1700958593956417300,14.310417236328124,5.024230480194092,14.058984756469727,8.011898040771484
1700958593973410600,14.32741064453125,5.6232404708862305,11.338679313659668,13.61768913269043
1700958593990403000,14.344403076171876,4.674567222595215,8.548154830932617,14.551252365112305
1700958594007396900,14.36139697265625,2.348651885986328,6.649974822998047,15.312171936035156
1700958594024386800,14.37838671875,0.6256303787231445,8.549888610839844,18.295360565185547
1700958594041385200,14.39538525390625,0.2570514678955078,7.196863174438477,26.23819923400879
1700958594058376000,14.4123759765625,0.570873498916626,5.194753646850586,28.737638473510742
1700958594075366700,14.42936669921875,0.16324281692504883,1.4755382537841797,28.41135025024414
1700958594092364500,14.446364501953125,-2.8860812187194824,-3.544099807739258,24.663883209228516
1700958594109355000,14.46335498046875,-2.935673236846924,-10.516656875610352,18.754043579101562
1700958594126348500,14.4803486328125,1.7612215280532837,-17.890798568725586,11.311934471130371
1700958594143341600,14.497341552734374,8.228666305541992,-24.620223999023438,4.08107852935791
1700958594160334600,14.51433447265625,11.154208183288574,-28.23331642150879,-1.9626479148864746
1700958594177327600,14.53132763671875,9.013012886047363,-28.94884490966797,-3.5373663902282715
1700958594194310000,14.548309814453125,6.5159502029418945,-28.85239028930664,-1.2088587284088135
1700958594211311600,14.5653115234375,6.810991287231445,-28.33272933959961,1.6458532810211182
1700958594228309500,14.5823095703125,7.948269844055176,-27.207836151123047,4.818541526794434
1700958594245300200,14.59930029296875,8.438232421875,-25.747596740722656,5.891111373901367
1700958594262285600,14.61628564453125,6.557091236114502,-23.434490203857422,6.534905910491943
1700958594279284200,14.6332841796875,4.420051574707031,-20.198455810546875,7.710301399230957
1700958594296281600,14.650281494140625,2.964637517929077,-16.86001205444336,11.798648834228516
1700958594313272600,14.6672724609375,2.0182008743286133,-13.917850494384766,14.06238079071045
1700958594330265600,14.684265625,0.2511024475097656,-12.00255298614502,15.878401756286621
1700958594347259100,14.701259033203126,-4.65211820602417,-7.837650775909424,17.232879638671875
1700958594364252200,14.718252197265626,-8.404946327209473,-1.5827183723449707,18.213382720947266
1700958594381244700,14.73524462890625,-6.705653667449951,2.657233238220215,28.872955322265625
1700958594398238000,14.752238037109375,-1.974412441253662,7.960938453674316,48.13798141479492
1700958594415221000,14.769220947265625,9.700397491455078,15.548483848571777,47.3896598815918
1700958594432224300,14.786224365234375,14.748331069946289,18.929624557495117,26.87216567993164
1700958594449215000,14.803215087890624,6.796232223510742,15.887796401977539,7.812431335449219
1700958594466213000,14.820213134765625,1.0838186740875244,13.53589153289795,-3.683356285095215
1700958594483203800,14.837203857421875,-0.09277582168579102,11.827493667602539,-6.243888854980469
1700958594500194000,14.854194091796876,1.5826961994171143,11.709300994873047,-5.998678207397461
1700958594517192400,14.8711923828125,5.3583760261535645,13.025357246398926,-7.682778358459473
1700958594534162700,14.88816259765625,6.641756057739258,16.025859832763672,-11.135305404663086
1700958594551178800,14.9051787109375,2.777994394302368,18.641769409179688,-13.172738075256348
1700958594568169200,14.922169189453125,-1.4337787628173828,19.268152236938477,-11.775166511535645
1700958594585162500,14.93916259765625,-2.457641363143921,18.234325408935547,-8.52347183227539
1700958594602155000,14.956155029296875,-0.01854562759399414,16.521228790283203,-4.752161026000977
1700958594619148800,14.973148681640625,4.952651023864746,15.460890769958496,-1.0508017539978027
1700958594636141600,14.9901416015625,6.095798492431641,13.886917114257812,4.308061599731445
1700958594653134800,15.007134765625,5.111165523529053,13.37454605102539,10.397292137145996
1700958594670127600,15.024127685546874,4.042401313781738,12.183645248413086,17.55419158935547
1700958594687120600,15.04112060546875,4.225354194641113,11.97528076171875,22.55185890197754
1700958594704114700,15.05811474609375,7.422258377075195,12.299193382263184,27.018463134765625
1700958594721104400,15.0751044921875,9.513849258422852,8.815046310424805,29.426048278808594
1700958594738100200,15.092100341796876,8.143884658813477,6.017005920410156,27.507455825805664
1700958594755083000,15.1090830078125,2.413442611694336,1.9791975021362305,25.193431854248047
1700958594772076000,15.126075927734375,-3.797921657562256,-3.769996166229248,25.078081130981445
1700958594789079600,15.14307958984375,-3.916377544403076,-11.096991539001465,22.155858993530273
1700958594806072300,15.160072265625,2.1624226570129395,-18.857852935791016,15.087530136108398
1700958594823066400,15.17706640625,11.221278190612793,-24.32778549194336,5.9650092124938965
1700958594840059100,15.19405908203125,16.289222717285156,-27.035400390625,-0.28174546360969543
1700958594857052200,15.21105224609375,12.708490371704102,-29.09273910522461,-0.9002269506454468
1700958594874044700,15.228044677734376,6.923137664794922,-30.72821807861328,0.6265387535095215
1700958594891038200,15.2450380859375,3.513126850128174,-31.815750122070312,2.8745341300964355
1700958594908031500,15.262031494140626,2.2265896797180176,-32.31650924682617,3.0296034812927246
1700958594925024500,15.2790244140625,1.8712875843048096,-31.178359985351562,-1.401357650756836
1700958594942006800,15.2960068359375,2.8680245876312256,-29.90167999267578,-4.764536380767822
1700958594959010800,15.3130107421875,4.452094078063965,-29.16687774658203,2.950523853302002
1700958594976003800,15.33000390625,5.980238914489746,-26.222082138061523,17.059804916381836
1700958594992986400,15.346986328125,6.438498497009277,-20.10997772216797,18.8034610748291
1700958595009986800,15.36398681640625,1.4449961185455322,-15.306071281433105,12.77475357055664
1700958595026986500,15.380986572265625,-6.60038423538208,-12.042047500610352,11.428218841552734
1700958595043976200,15.39797607421875,-6.180932521820068,-8.76948356628418,21.540006637573242
1700958595060969200,15.41496923828125,1.9108645915985107,-5.396364212036133,41.24355697631836
1700958595077962000,15.4319619140625,11.89659309387207,4.163796901702881,45.78506851196289
1700958595094959600,15.448959716796875,19.472003936767578,11.341226577758789,41.208927154541016
1700958595111938000,15.46593798828125,14.291178703308105,14.177905082702637,33.05790710449219
1700958595128941800,15.48294189453125,6.433182239532471,15.576971054077148,21.48923110961914
1700958595145934600,15.4999345703125,1.5808076858520508,14.407625198364258,13.189047813415527
1700958595162928000,15.51692822265625,1.9529716968536377,13.0741548538208,7.253889083862305
1700958595179921200,15.533921142578125,5.643644332885742,13.44048023223877,0.6294870376586914
1700958595196914700,15.550914794921875,7.4560441970825195,14.813629150390625,-3.137068271636963
1700958595213915600,15.56791552734375,6.834850788116455,16.889448165893555,-3.9998817443847656
1700958595230898400,15.5848984375,5.055334091186523,19.462966918945312,-4.639825344085693
1700958595247896000,15.60189599609375,2.3304765224456787,21.211471557617188,-5.249608993530273
1700958595264886800,15.61888671875,0.20269513130187988,21.558048248291016,-5.375784873962402
1700958595281877000,15.635876953125,-0.429201602935791,20.45763397216797,-3.0349745750427246
1700958595298876000,15.6528759765625,1.2930662631988525,18.077869415283203,1.5136194229125977
1700958595315866000,15.6698662109375,3.600768566131592,15.188920021057129,6.997978210449219
1700958595332859000,15.68685888671875,3.926941394805908,12.40859317779541,14.39576530456543
1700958595349852200,15.70385205078125,3.6193737983703613,9.85727310180664,19.971153259277344
1700958595366846000,15.720845947265625,4.276352882385254,7.7960028648376465,22.469215393066406
1700958595383838200,15.737838134765624,8.269247055053711,6.674543380737305,26.304584503173828
1700958595400829000,15.754828857421876,8.790043830871582,3.8254308700561523,29.999969482421875
1700958595417827000,15.7718271484375,3.332184076309204,0.5938735008239746,30.916404724121094
1700958595434818000,15.788818115234376,-5.149696350097656,-3.1819615364074707,30.0297908782959
1700958595451810800,15.805810791015626,-9.536712646484375,-8.71180534362793,27.388553619384766
1700958595468803800,15.822803955078125,-3.125521659851074,-18.38330841064453,23.39520835876465
1700958595485796900,15.839796875,10.281880378723145,-25.51483154296875,14.15843391418457
1700958595502790400,15.856790283203125,20.333648681640625,-25.916202545166016,2.8706119060516357
1700958595519783400,15.873783447265625,18.183645248413086,-26.829803466796875,-2.376105308532715
1700958595536765700,15.890765625,10.25914192199707,-27.82433319091797,-2.589944362640381
1700958595553765400,15.907765380859376,5.001649856567383,-28.2766056060791,-1.6604282855987549
1700958595570765800,15.924765869140625,4.390172004699707,-28.455062866210938,0.17060059309005737
1700958595587756300,15.94175634765625,7.452163219451904,-27.927833557128906,-0.5097255110740662
1700958595604748000,15.958748046875,11.083511352539062,-26.92581558227539,-1.583540439605713
1700958595621742300,15.975742431640626,12.495866775512695,-25.16735076904297,-1.2368031740188599
1700958595638735400,15.9927353515625,11.449418067932129,-23.0343017578125,1.433142900466919
1700958595655715000,16.009715087890626,7.927302837371826,-20.910846710205078,6.669467926025391
1700958595672723700,16.0267236328125,2.7054269313812256,-17.78976821899414,13.316693305969238
1700958595689711600,16.043711669921876,-2.352141857147217,-14.335737228393555,14.454111099243164
1700958595706710300,16.060710205078124,-4.067200660705566,-12.271245956420898,12.289292335510254
1700958595723700200,16.0777001953125,-6.041750431060791,-7.620323657989502,8.772294998168945
1700958595740683000,16.09468310546875,-6.272737979888916,-1.5389983654022217,11.90676212310791
1700958595757686500,16.1116865234375,-5.286432266235352,-5.444847583770752,46.491912841796875
1700958595774676000,16.128676025390625,-6.223441123962402,-4.959874629974365,71.73046875
1700958595791677200,16.14567724609375,5.380898475646973,5.069093704223633,48.303863525390625
1700958595808655600,16.162655517578123,18.743144989013672,11.55683422088623,14.328890800476074
1700958595825656300,16.17965625,15.064457893371582,11.44260025024414,3.69317626953125
1700958595842655000,16.196655029296874,3.5727005004882812,10.236165046691895,4.851474761962891
1700958595859645200,16.213645263671875,-1.5843281745910645,10.70394229888916,1.4693317413330078
1700958595876638500,16.230638427734377,1.8313231468200684,12.25178337097168,-3.3926825523376465
1700958595893631200,16.24763134765625,6.939365386962891,14.019536018371582,-5.0824360847473145
1700958595910625000,16.264625,9.62398910522461,16.333829879760742,-4.918735504150391
1700958595927617800,16.28161767578125,5.59874153137207,18.044118881225586,-4.969282627105713
1700958595944611000,16.298611083984376,-0.2884483337402344,19.074047088623047,-5.880533218383789
1700958595961593300,16.31559326171875,-2.2398877143859863,18.610109329223633,-6.527663707733154
1700958595978597400,16.332597412109376,-0.8467209339141846,17.70894432067871,-6.676116943359375
1700958595995580000,16.349579833984375,1.2472953796386719,16.366228103637695,-1.9499268531799316
1700958596012583400,16.36658349609375,2.144232749938965,14.093814849853516,5.51374626159668
1700958596029576200,16.383576171875,2.306997060775757,12.161273002624512,11.626955032348633
1700958596046570000,16.400570068359375,1.9148917198181152,11.03153133392334,17.75165557861328
1700958596063562500,16.4175625,4.0992255210876465,10.956276893615723,22.091785430908203
1700958596080555800,16.4345556640625,7.69497013092041,10.363895416259766,29.031219482421875
1700958596097548500,16.451548583984376,7.105206489562988,8.20216178894043,34.348976135253906
1700958596114542000,16.4685419921875,4.227542877197266,5.515335559844971,36.08317184448242
1700958596131529700,16.48552978515625,-0.5548357963562012,-0.5122017860412598,35.10037612915039
1700958596148528400,16.5025283203125,-3.109999895095825,-7.582546234130859,29.036701202392578
1700958596165504300,16.519504150390624,-1.4203627109527588,-14.819121360778809,20.550939559936523
1700958596182505500,16.53650537109375,3.1709542274475098,-22.05657386779785,12.62302017211914
1700958596199508200,16.55350830078125,10.46189022064209,-27.35886573791504,4.9939680099487305
1700958596216501000,16.5705009765625,13.188799858093262,-30.304338455200195,-1.6099472045898438
1700958596233492200,16.5874921875,10.30161190032959,-31.376686096191406,-5.088907718658447
1700958596250487000,16.604487060546877,6.511897087097168,-31.973651885986328,-3.495999336242676
1700958596267479800,16.621479736328126,5.5220842361450195,-32.81971740722656,1.6475130319595337
1700958596284470300,16.63847021484375,7.005298137664795,-32.05000686645508,2.157569408416748
1700958596301466000,16.655466064453126,9.735767364501953,-30.274181365966797,-0.6962663531303406
1700958596318459600,16.672459716796876,11.279739379882812,-28.00303840637207,-1.3289672136306763
1700958596335452200,16.6894521484375,10.402361869812012,-25.4549503326416,3.397165298461914
1700958596352445400,16.706445556640624,7.689360618591309,-22.215499877929688,12.922012329101562
1700958596369438500,16.7234384765625,3.7793502807617188,-17.423667907714844,19.638948440551758
1700958596386431700,16.740431640625,-0.7116150856018066,-12.767871856689453,17.811277389526367
1700958596403421200,16.757421142578124,-7.2194366455078125,-8.393339157104492,11.324381828308105
1700958596420417800,16.774417724609375,-11.987972259521484,-3.639986753463745,10.822012901306152
1700958596437410800,16.791410888671876,-9.525187492370605,-1.624495029449463,27.491235733032227
1700958596454401500,16.808401611328126,-0.7441458702087402,0.47417712211608887,49.269309997558594
1700958596471400000,16.82539990234375,9.86365032196045,9.132630348205566,44.5345458984375
1700958596488390100,16.84239013671875,9.80119514465332,14.331748008728027,28.162052154541016
1700958596505383000,16.8593828125,0.7496428489685059,14.709634780883789,20.31302261352539
1700958596522376700,16.876376708984374,-4.968182563781738,12.542677879333496,13.890559196472168
1700958596539369500,16.893369384765624,-2.57820463180542,11.256962776184082,5.721490859985352
1700958596556362500,16.910362548828125,3.1518497467041016,11.241859436035156,0.11179447174072266
1700958596573355500,16.92735546875,6.0126848220825195,13.032949447631836,-3.335585594177246
1700958596590349300,16.944349365234373,5.388028144836426,15.172782897949219,-4.990213394165039
1700958596607341800,16.961341796875,2.655679225921631,17.1112117767334,-6.562203407287598
1700958596624333600,16.97833349609375,-1.5929124355316162,18.54502296447754,-8.680391311645508
1700958596641327600,16.99532763671875,-3.9928526878356934,18.882884979248047,-9.334710121154785
1700958596658321700,17.01232177734375,-2.950193405151367,18.451744079589844,-7.39251184463501
1700958596675314400,17.029314453125,-0.5381548404693604,17.59360122680664,-2.871828556060791
1700958596692307200,17.04630712890625,0.41965293884277344,16.06439971923828,3.2861814498901367
1700958596709300000,17.063300048828125,-0.858853816986084,13.937403678894043,8.149152755737305
1700958596726294000,17.0802939453125,-1.9757370948791504,12.004703521728516,11.780905723571777
1700958596743286800,17.097286865234373,-2.8979270458221436,10.786872863769531,17.382204055786133
1700958596760280000,17.114280029296875,-0.0847163200378418,9.949586868286133,22.676002502441406
1700958596777272800,17.13127294921875,4.089207172393799,10.0600004196167,25.607837677001953
1700958596794256000,17.148255859375,4.606551170349121,8.387290954589844,26.019193649291992
1700958596811259400,17.16525927734375,2.5704023838043213,6.666074752807617,26.5013484954834
1700958596828252200,17.182252197265626,0.7961215972900391,1.9313592910766602,27.15255355834961
1700958596845232000,17.199232177734373,4.11728048324585,-5.333082675933838,25.532821655273438
1700958596862239000,17.216239013671874,10.909250259399414,-13.72196102142334,21.195341110229492
1700958596879234300,17.233234375,16.88788604736328,-19.91122055053711,13.729456901550293
1700958596896224500,17.250224609375,17.160301208496094,-23.42266845703125,5.948229789733887
1700958596913214700,17.267214599609375,12.637533187866211,-25.6447811126709,1.0808920860290527
1700958596930201300,17.284201416015627,8.135051727294922,-27.130725860595703,-0.8546702861785889
1700958596947193900,17.30119384765625,5.591859340667725,-27.705211639404297,-0.9411841034889221
1700958596964188400,17.3181884765625,5.898486614227295,-28.29709243774414,0.49909114837646484
1700958596981181200,17.33518115234375,8.92312240600586,-28.1223087310791,0.5723954439163208
1700958596998175200,17.35217529296875,11.541265487670898,-27.467180252075195,0.2231987714767456
1700958597015165000,17.3691650390625,10.981071472167969,-26.2471981048584,1.3803331851959229
1700958597032159000,17.386158935546874,8.258867263793945,-24.47540283203125,4.080142974853516
1700958597049158100,17.403158203125,5.1802568435668945,-22.597354888916016,9.05264663696289
1700958597066145800,17.420145751953125,1.9088215827941895,-20.053308486938477,15.559783935546875
1700958597083141600,17.4371416015625,-0.7428135871887207,-16.61029815673828,18.57757568359375
1700958597100136700,17.45413671875,-2.501481056213379,-13.245834350585938,16.113750457763672
1700958597117125400,17.47112548828125,-4.5308732986450195,-8.001459121704102,12.023906707763672
1700958597134117000,17.4881171875,-5.445786952972412,-5.183566570281982,19.823787689208984
1700958597151113500,17.505113525390627,-3.8693957328796387,-4.979007244110107,44.234718322753906
1700958597168107000,17.52210693359375,2.3837411403656006,0.9147540330886841,58.464881896972656
1700958597185097700,17.53909765625,8.794387817382812,10.249584197998047,45.24435043334961
1700958597202103300,17.556103271484375,11.956338882446289,15.050033569335938,26.576759338378906
1700958597219093800,17.57309375,4.297658920288086,14.862504005432129,16.35518455505371
1700958597236082400,17.59008251953125,-2.445132255554199,13.635486602783203,9.740147590637207
1700958597253083600,17.607083740234376,-2.8608150482177734,12.098907470703125,3.849332809448242
1700958597270070500,17.624070556640625,-0.08232927322387695,11.347373962402344,2.0708675384521484
1700958597287068400,17.641068359375,2.048050880432129,11.96142578125,-0.33866310119628906
1700958597304056300,17.658056396484376,2.780409097671509,12.530014991760254,-1.7941336631774902
1700958597321054500,17.675054443359375,1.8678855895996094,12.994266510009766,-2.3920540809631348
1700958597338045700,17.692045654296876,-0.8667140007019043,12.796412467956543,-3.408473491668701
1700958597355032800,17.70903271484375,-2.04262113571167,13.241464614868164,-6.309655666351318
1700958597372031500,17.726031494140624,-0.08078622817993164,13.735971450805664,-9.001306533813477
1700958597389024500,17.7430244140625,2.2208309173583984,13.514963150024414,-8.762351036071777
1700958597406018300,17.760018310546876,2.1303000450134277,12.342105865478516,-6.21626091003418
1700958597423010600,17.777010498046874,0.8093445301055908,11.023285865783691,-2.377182960510254
1700958597440004000,17.794004150390624,-0.9683132171630859,10.119348526000977,-0.1921672821044922
1700958597456996900,17.810996826171873,-2.7388672828674316,11.145852088928223,2.24967098236084
1700958597473988900,17.82798876953125,-1.4569182395935059,13.85194206237793,8.561872482299805
1700958597490980400,17.84498046875,4.155614376068115,13.800597190856934,20.18971824645996
1700958597507979000,17.86197900390625,8.98073959350586,12.952515602111816,28.200847625732422
1700958597524969500,17.878969482421876,8.96949577331543,11.486008644104004,30.115596771240234
1700958597541958100,17.895958251953125,4.529791831970215,7.836209774017334,31.823883056640625
1700958597558955500,17.91295556640625,-0.26611328125,3.298090934753418,33.3241081237793
1700958597575948800,17.92994873046875,-1.7038836479187012,-2.8673925399780273,32.042388916015625
1700958597592941600,17.946941650390624,1.2308845520019531,-8.290133476257324,26.458904266357422
1700958597609935600,17.963935546875,6.0965752601623535,-12.303670883178711,19.900278091430664
1700958597626927600,17.980927734375,9.989126205444336,-15.782613754272461,14.644121170043945
1700958597643921200,17.997921142578125,12.542325973510742,-18.326560974121094,10.226472854614258
1700958597660914200,18.0149140625,11.842449188232422,-20.37662696838379,7.176301002502441
1700958597677903000,18.031903076171876,8.80845832824707,-22.699739456176758,5.177409648895264
1700958597694894300,18.048894287109373,6.132570266723633,-25.302688598632812,2.1519672870635986
1700958597711878100,18.065878173828125,6.270238399505615,-27.2779541015625,-1.772878885269165
1700958597728886500,18.082886474609374,8.28403091430664,-27.464385986328125,-5.899611949920654
1700958597745877500,18.09987744140625,10.57784652709961,-26.68833351135254,-7.6923909187316895
1700958597762875000,18.116875,11.085294723510742,-25.953298568725586,-5.521789073944092
1700958597779866000,18.1338662109375,9.335142135620117,-24.493837356567383,-0.5677208304405212
1700958597796859000,18.15085888671875,7.462185382843018,-22.589797973632812,4.758845806121826
1700958597813852200,18.16785205078125,6.3456926345825195,-21.23246955871582,8.897757530212402
1700958597830842600,18.184842529296876,4.547266960144043,-19.390766143798828,9.5790376663208
1700958597847840800,18.2018408203125,0.3201289176940918,-17.611587524414062,6.281248092651367
1700958597864831200,18.218831298828125,-5.462373733520508,-13.92933464050293,4.715070724487305
1700958597881824800,18.23582470703125,-12.029071807861328,-10.297472953796387,11.59998607635498
1700958597898817800,18.25281787109375,-17.913448333740234,-12.665355682373047,31.505794525146484
1700958597915810600,18.269810546875,-4.358144760131836,-21.444061279296875,50.700645446777344
1700958597932803600,18.286803466796876,29.248023986816406,-6.282986164093018,43.422203063964844
1700958597949794600,18.303794677734373,36.43008041381836,6.49198579788208,29.134130477905273
1700958597966782000,18.320781982421874,20.777231216430664,5.229796409606934,24.916370391845703
1700958597983783200,18.337783203125,2.393054723739624,3.9828858375549316,20.938749313354492
1700958598000776200,18.354776123046875,-8.28955078125,6.238111972808838,16.80261993408203
1700958598017759500,18.371759521484375,-7.122464656829834,9.31990909576416,8.626852035522461
1700958598034762500,18.388762451171875,-1.2691268920898438,9.854398727416992,2.5515432357788086
1700958598051755800,18.405755859375,1.7454416751861572,9.680839538574219,0.8244218826293945
1700958598068748500,18.42274853515625,0.51336669921875,9.48100471496582,-0.592890739440918
1700958598085731300,18.4397314453125,-1.2132353782653809,9.107003211975098,-0.8801579475402832
1700958598102735000,18.456735107421874,-1.61456298828125,8.623128890991211,-1.2880239486694336
1700958598119727900,18.473727783203124,0.07597494125366211,8.322014808654785,-4.4081711769104
1700958598136720600,18.490720703125,1.362912654876709,7.7643208503723145,-7.668702602386475
1700958598153714700,18.507714599609375,2.467116594314575,7.409557819366455,-9.25736141204834
1700958598170705200,18.524705078125,2.7199971675872803,7.403289318084717,-8.702780723571777
1700958598187702000,18.541701904296875,1.008100986480713,7.21455717086792,-6.167800426483154
1700958598204693000,18.55869287109375,-0.9194355010986328,7.332868576049805,-5.968123912811279
1700958598221686800,18.575686767578127,-2.2416467666625977,9.351073265075684,-6.400762557983398
1700958598238679800,18.5926796875,-2.0284924507141113,13.301650047302246,-4.825598239898682
1700958598255672800,18.6096728515625,1.005251407623291,15.646483421325684,8.917738914489746
1700958598272665600,18.62666552734375,2.90647554397583,17.49580192565918,23.682395935058594
1700958598289656800,18.64365673828125,-2.953484058380127,17.852985382080078,30.21101188659668
1700958598306654200,18.660654296875,-12.67750358581543,14.831530570983887,30.883995056152344
1700958598323645200,18.677645263671874,-15.504390716552734,8.861351013183594,31.73719596862793
1700958598340638000,18.694637939453123,-10.973169326782227,2.099912405014038,30.27348518371582
1700958598357631500,18.711631591796873,-3.507023334503174,-3.6741390228271484,28.273639678955078
1700958598374624500,18.72862451171875,3.471024990081787,-7.436923027038574,25.545015335083008
1700958598391617800,18.74561767578125,7.315643310546875,-9.114912986755371,22.983264923095703
1700958598408610300,18.7626103515625,7.479195594787598,-10.47219467163086,21.762540817260742
1700958598425604000,18.77960400390625,5.728620529174805,-12.157526016235352,20.923490524291992
1700958598442596900,18.796596923828126,4.590045928955078,-14.062466621398926,19.873117446899414
1700958598459590000,18.81358984375,5.041715621948242,-15.71713638305664,17.093101501464844
1700958598476589600,18.830589599609375,6.574039459228516,-15.726249694824219,11.69965648651123
1700958598493576400,18.847576416015624,7.097567081451416,-15.197683334350586,7.085145950317383
1700958598510569500,18.864569580078125,6.709437370300293,-14.45551872253418,4.681857109069824
1700958598527569200,18.881569091796877,6.62801456451416,-13.448280334472656,3.561831474304199
1700958598544555500,18.898555419921873,6.449222087860107,-12.329233169555664,3.0475847721099854
1700958598561546000,18.9155458984375,6.823051452636719,-10.998588562011719,3.225355863571167
1700958598578535200,18.93253515625,6.713844299316406,-9.547403335571289,3.896742582321167
1700958598595534800,18.949534912109375,6.164314270019531,-8.455995559692383,4.974401473999023
1700958598612527900,18.96652783203125,6.521541118621826,-7.782280921936035,6.307312965393066
1700958598629523200,18.983523193359375,7.347761631011963,-7.353616714477539,7.391340732574463
1700958598646513200,19.00051318359375,7.881477355957031,-6.973937034606934,8.019391059875488
1700958598663508000,19.017508056640626,6.48203182220459,-6.383724212646484,7.993627071380615
1700958598680500000,19.0345,2.803818702697754,-6.8051652908325195,8.34408187866211
1700958598697493000,19.051492919921873,-0.773801326751709,-6.836645126342773,7.25832462310791
1700958598714476500,19.0684765625,-2.292863368988037,-6.217523574829102,3.985614776611328
1700958598731477500,19.0854775390625,-0.12378931045532227,-4.879589080810547,0.22972536087036133
1700958598748474400,19.102474365234375,4.281868934631348,-2.92752742767334,-0.8996663093566895
1700958598765465900,19.1194658203125,4.033884048461914,0.32485103607177734,1.416959524154663
1700958598782458600,19.136458740234374,-3.658813953399658,2.1807713508605957,6.409213066101074
1700958598799452000,19.153451904296876,-9.602478981018066,3.130251884460449,12.636007308959961
1700958598816442000,19.170442138671874,-9.950878143310547,4.808926582336426,16.154556274414062
1700958598833428200,19.18742822265625,-4.346017837524414,8.314403533935547,13.830925941467285
1700958598850422500,19.204422607421876,0.20635592937469482,9.989874839782715,10.803234100341797
1700958598867427000,19.221427001953124,3.251673936843872,9.33565902709961,8.4389009475708
1700958598884417000,19.2384169921875,6.73652458190918,8.4161958694458,6.581993103027344
1700958598901410800,19.255410888671875,9.034767150878906,7.23164176940918,6.101535797119141
1700958598918403800,19.27240380859375,9.078067779541016,5.751228332519531,6.074956893920898
1700958598935396900,19.28939697265625,6.52133321762085,3.8245315551757812,4.813855171203613
1700958598952389600,19.3063896484375,3.833569049835205,1.7801017761230469,2.3025083541870117
1700958598969380400,19.32338037109375,2.025071144104004,-0.563471794128418,0.5788142681121826
1700958598986378500,19.34037841796875,1.8365528583526611,-2.942991256713867,-0.5083367824554443
1700958599003369000,19.357368896484374,2.148930788040161,-5.098679542541504,-0.6889091730117798
1700958599020362000,19.374362060546876,2.605334758758545,-6.86545467376709,-0.5276618003845215
1700958599037353000,19.39135302734375,2.5765790939331055,-7.8706560134887695,-0.4446835219860077
1700958599054348500,19.4083486328125,1.8688032627105713,-8.563543319702148,-0.6138696670532227
1700958599071341600,19.425341552734373,1.3204314708709717,-8.545577049255371,-0.81019127368927
1700958599088334600,19.44233447265625,0.5243732929229736,-7.910231590270996,-0.764142632484436
1700958599105327900,19.459327880859377,0.32782673835754395,-6.944287300109863,-0.4469778537750244
1700958599122320600,19.476320556640626,1.0942363739013672,-5.244069576263428,-1.0073938369750977
1700958599139314200,19.493314208984376,1.3435487747192383,-2.726470947265625,-2.003709316253662
1700958599156306700,19.510306640625,0.7950057983398438,-1.1661324501037598,-1.464250087738037
1700958599173300500,19.527300537109376,0.8552556037902832,-0.32270336151123047,1.2798094749450684
1700958599190293200,19.544293212890626,4.209059715270996,0.6699609756469727,4.4748992919921875
1700958599207286300,19.561286376953124,4.540844917297363,0.4830026626586914,4.535223484039307
1700958599224279000,19.578279052734374,4.900513172149658,1.0917367935180664,5.05207633972168
1700958599241272600,19.5952724609375,6.443326473236084,0.44928503036499023,1.2462936639785767
1700958599258263600,19.612263671875,6.408830642700195,-0.265017032623291,1.3139735460281372
1700958599275260700,19.6292607421875,5.1646270751953125,-1.1384830474853516,2.62239670753479
1700958599292251600,19.646251708984376,3.198558807373047,-2.003601551055908,4.451202392578125
1700958599309245200,19.6632451171875,0.8583970069885254,-2.0214338302612305,3.1535866260528564
1700958599326238000,19.680238037109376,0.11382341384887695,-1.9574522972106934,2.08960223197937
1700958599343231200,19.697231201171874,0.5650906562805176,-1.3707056045532227,2.52524995803833
1700958599360223700,19.7142236328125,0.9602923393249512,-1.458549976348877,3.215482711791992
1700958599377217500,19.731217529296874,1.3583364486694336,-1.4896955490112305,3.629626512527466
1700958599394199600,19.748199462890625,1.3781590461730957,-1.8044366836547852,4.083784580230713
1700958599411203600,19.76520361328125,1.5869688987731934,-2.1542906761169434,3.3491127490997314
1700958599428196000,19.782196044921875,1.409440040588379,-2.2409186363220215,2.86273193359375
1700958599445189400,19.799189453125,1.113049030303955,-2.0339698791503906,2.667891502380371
1700958599462183200,19.81618310546875,0.6594510078430176,-1.8113842010498047,2.2912490367889404
1700958599479176400,19.833176513671877,0.25246715545654297,-1.7903833389282227,2.20209002494812
1700958599496168200,19.850168212890626,0.3878331184387207,-1.9439444541931152,2.5479347705841064
1700958599513173200,19.86717333984375,1.2579936981201172,-1.9748425483703613,2.7295098304748535
1700958599530155300,19.8841552734375,1.8430132865905762,-1.7798151969909668,2.2358481884002686
1700958599547148300,19.901148193359376,1.8241214752197266,-1.4700312614440918,1.9290528297424316
1700958599564141300,19.918141357421874,0.4704170227050781,-1.2713432312011719,2.2697601318359375
1700958599581134800,19.935134765625,0.5426731109619141,-0.8745889663696289,2.6271727085113525
1700958599598127900,19.9521279296875,0.7472829818725586,-0.9506239891052246,2.439929485321045
1700958599615111000,19.96911083984375,1.3901262283325195,-1.0099635124206543,2.6127374172210693
1700958599632112600,19.986112548828125,1.5753898620605469,-1.0689473152160645,2.569789409637451
1700958599649096200,20.00309619140625,1.8985142707824707,-0.9866228103637695,2.8160996437072754
1700958599666100000,20.020099853515624,1.9755768775939941,-0.7008833885192871,3.0420470237731934
1700958599683093000,20.037093017578126,1.102625846862793,-0.23824644088745117,2.9829964637756348
1700958599700085800,20.054085693359376,0.33857250213623047,-0.25260210037231445,2.5684804916381836
1700958599717079600,20.07107958984375,0.2794504165649414,-0.1227712631225586,2.4520390033721924
1700958599734062300,20.088062255859374,0.44399309158325195,0.027794837951660156,2.8034327030181885
1700958599751074300,20.10507421875,0.8108749389648438,-0.037070274353027344,2.756058692932129
1700958599768061000,20.12206103515625,0.7584362030029297,-0.09343814849853516,2.777008056640625
1700958599785052200,20.13905224609375,0.5690770149230957,-0.09417200088500977,2.7093982696533203
1700958599802044700,20.156044677734375,0.672426700592041,-0.04693746566772461,2.697252035140991
1700958599819038000,20.173037841796877,0.5083794593811035,-0.18070650100708008,2.8615224361419678
1700958599836028200,20.190028076171874,0.11401605606079102,-0.2649369239807129,2.528533458709717
1700958599853026800,20.20702685546875,-0.5405178070068359,-0.2015056610107422,2.11422061920166
1700958599870014500,20.224014404296874,-1.2990870475769043,-0.13504552841186523,2.2022716999053955
1700958599887012600,20.2410126953125,-1.3135995864868164,0.14053010940551758,2.6530086994171143
1700958599904000300,20.258000244140625,-1.4503870010375977,0.29577112197875977,3.896606683731079
1700958599920999200,20.274999267578124,-1.0756149291992188,0.3547959327697754,4.340656757354736
1700958599937989600,20.29198974609375,-0.2979159355163574,0.3619227409362793,3.497870445251465
1700958599954972200,20.30897216796875,0.5752115249633789,0.5644326210021973,2.991819381713867
1700958599971975400,20.325975341796877,0.6499919891357422,1.0152859687805176,3.096926689147949
1700958599988969200,20.34296923828125,0.5396862030029297,1.1551127433776855,3.0503740310668945
1700958600005961700,20.359961669921876,0.5113344192504883,1.2418994903564453,3.4753870964050293
1700958600022954800,20.376954833984374,0.48837947845458984,1.1506705284118652,3.5950493812561035
1700958600039948000,20.393947998046876,0.4003314971923828,1.1148533821105957,3.6911330223083496
1700958600056942600,20.410942626953126,0.35935306549072266,1.0568928718566895,3.073137044906616
1700958600073925600,20.427925537109374,0.07916736602783203,0.9704055786132812,2.8465218544006348
1700958600090924800,20.4449248046875,-0.3398628234863281,1.0717644691467285,2.920710563659668
1700958600107923000,20.4619228515625,-0.7052755355834961,1.0598888397216797,2.75060772895813
1700958600124910800,20.478910888671876,-0.6759185791015625,1.1592984199523926,2.297699451446533
1700958600141909800,20.49590966796875,-0.30971431732177734,1.2426958084106445,2.2944693565368652
1700958600158899700,20.512899658203125,0.11365890502929688,1.338608741760254,2.2524681091308594
1700958600175892700,20.529892822265627,0.34951210021972656,1.4249143600463867,2.1665635108947754
1700958600192886000,20.546885986328125,0.2065887451171875,1.3913168907165527,2.116471290588379
1700958600209877200,20.563877197265626,-0.27306652069091797,1.3275775909423828,2.291954755783081
1700958600226874000,20.5808740234375,-0.6080904006958008,1.4109282493591309,2.4409303665161133
1700958600243865000,20.597864990234374,-0.8973526954650879,1.4414639472961426,2.2539546489715576
1700958600260859000,20.61485888671875,-0.9472827911376953,1.4608488082885742,2.0716850757598877
1700958600277851400,20.631851318359374,-1.2782740592956543,1.4429211616516113,2.0237631797790527
1700958600294844400,20.648844482421875,-1.5116887092590332,1.844621181488037,2.2177648544311523
1700958600311837400,20.66583740234375,-1.410529613494873,1.6320414543151855,1.9988141059875488
1700958600328818700,20.682818603515624,-0.6339788436889648,1.700552225112915,1.9688537120819092
1700958600345825800,20.69982568359375,-0.655207633972168,1.600325345993042,1.75113046169281
1700958600362816500,20.71681640625,-0.6453142166137695,1.6817517280578613,1.745481014251709
1700958600379809800,20.733809814453124,-0.5582666397094727,1.6926913261413574,1.6268564462661743
1700958600396803600,20.750803466796874,-0.501133918762207,1.6399257183074951,1.346164584159851
1700958600413796000,20.767796142578124,-0.5760164260864258,1.5799775123596191,1.1983143091201782
1700958600430776300,20.7847763671875,-0.6560087203979492,1.622506856918335,1.3231151103973389
1700958600447773000,20.80177294921875,-0.7314014434814453,1.6959803104400635,1.2588615417480469
1700958600464767500,20.818767578125,-0.44463634490966797,1.7495789527893066,1.251554012298584
1700958600481761300,20.83576123046875,-0.17485523223876953,1.7202684879302979,1.1440469026565552
1700958600498755000,20.852755126953124,0.031874656677246094,1.7543137073516846,0.898733377456665
1700958600515745300,20.869745361328125,-0.1454753875732422,1.627225637435913,0.7108793258666992
1700958600532739300,20.8867392578125,-0.543126106262207,1.4406945705413818,0.5665978789329529
1700958600549729500,20.9037294921875,-0.7576379776000977,1.2809746265411377,0.43640798330307007
1700958600566727200,20.92072705078125,-0.5635128021240234,1.1680512428283691,0.22185447812080383
1700958600583717600,20.937717529296876,-0.09350109100341797,1.0689198970794678,0.1660686731338501
1700958600600713200,20.954713134765626,0.14094829559326172,1.054419994354248,0.1439298391342163
1700958600617707300,20.971707275390624,-0.3055095672607422,1.019723653793335,-0.07601247727870941
1700958600634697500,20.988697509765625,-0.876856803894043,0.9829940795898438,-0.2561931014060974
1700958600651690800,21.005690673828123,-1.1381640434265137,0.9361610412597656,-0.43768244981765747
1700958600668683500,21.02268359375,-1.2042021751403809,0.7678642272949219,-0.37061619758605957
1700958600685675800,21.03967578125,-0.8355255126953125,0.7675871849060059,-0.3385744094848633
1700958600702681000,21.05668115234375,0.20527172088623047,0.7150893211364746,-0.24870824813842773
1700958600719671600,21.073671630859376,-1.383664608001709,1.031684398651123,0.10682930052280426
1700958600736665300,21.090665283203126,-1.2038822174072266,1.1293835639953613,-0.05644768476486206
1700958600753655300,21.1076552734375,-0.4232978820800781,1.1294574737548828,-0.5360827445983887
1700958600770651400,21.1246513671875,-0.48924827575683594,0.9365324974060059,-0.944513201713562
1700958600787644000,21.141643798828124,-1.1607356071472168,0.9261088371276855,-1.1761326789855957
1700958600804637700,21.1586376953125,-1.4316840171813965,1.0574936866760254,-1.0153799057006836
1700958600821630700,21.175630615234375,-1.0558862686157227,1.373077392578125,-0.6767611503601074
1700958600838624000,21.1926240234375,-0.6705503463745117,1.5416955947875977,-0.6443552374839783
1700958600855616500,21.209616455078127,-0.7274551391601562,1.506209373474121,-0.9103671908378601
1700958600872610300,21.2266103515625,-1.0270824432373047,1.3969957828521729,-0.9918208718299866
1700958600889602800,21.243602783203126,-1.3203434944152832,1.3201625347137451,-1.158011794090271
1700958600906596000,21.26059619140625,-1.5541868209838867,1.3636820316314697,-1.3193564414978027
1700958600923588900,21.2775888671875,-1.6709208488464355,1.5321297645568848,-1.2580881118774414
1700958600940582700,21.294582763671876,-1.6647725105285645,1.619436502456665,-0.9876673221588135
1700958600957576000,21.311575927734374,-1.570244312286377,1.684046983718872,-0.8745039105415344
1700958600974558000,21.328557861328125,-1.3388676643371582,1.6956424713134766,-0.8007505536079407
1700958600991563800,21.345563720703126,-1.049856185913086,1.6179733276367188,-0.6620365381240845
1700958601008541200,21.362541259765624,-0.8342456817626953,1.6271133422851562,-0.7396179437637329
1700958601025550300,21.37955029296875,-0.9131603240966797,1.726778507232666,-0.6293418407440186
1700958601042540800,21.396540771484375,-1.1020774841308594,1.8766827583312988,-0.34544864296913147
1700958601059523300,21.4135234375,-1.2843151092529297,1.9866435527801514,-0.04804539680480957
1700958601076516600,21.4305166015625,-1.2200336456298828,2.04742169380188,0.2205093950033188
1700958601093519600,21.44751953125,-0.8374719619750977,2.1142024993896484,0.18715496361255646
1700958601110514000,21.464513916015626,-0.2535572052001953,2.205916404724121,0.08071587979793549
1700958601127510300,21.48151025390625,-0.042357444763183594,2.2893190383911133,0.11411426961421967
1700958601144500000,21.4985,-0.2940511703491211,2.281621217727661,0.09312795102596283
1700958601161494300,21.515494384765624,0.7148933410644531,2.4628407955169678,0.20945119857788086
1700958601178481400,21.5324814453125,-1.4922471046447754,1.698249340057373,0.7010347247123718
1700958601195481000,21.549481201171876,-2.1125388145446777,1.9800763130187988,0.9624475240707397
1700958601212472300,21.566472412109373,-2.2367992401123047,2.2024006843566895,0.7142994403839111
1700958601229465000,21.583465087890627,-0.5218725204467773,2.4527029991149902,0.9871746301651001
1700958601246457900,21.600457763671876,0.6009531021118164,1.996260643005371,0.043693721294403076
1700958601263451000,21.617450927734374,0.08750343322753906,1.6800975799560547,0.011292129755020142
1700958601280444700,21.634444580078124,-0.6184844970703125,1.6621451377868652,0.5666283965110779
1700958601297437400,21.6514375,-0.9595251083374023,1.8529205322265625,1.3227523565292358
1700958601314430500,21.668430419921876,-1.3056883811950684,1.8910188674926758,1.4847373962402344
1700958601331423500,21.685423583984374,-0.5442714691162109,1.6686530113220215,1.2738738059997559
1700958601348416800,21.702416748046875,0.6850652694702148,1.0868644714355469,1.1628128290176392
1700958601365406700,21.71940673828125,2.340182304382324,0.49777984619140625,1.229259729385376
1700958601382402800,21.73640283203125,2.8991918563842773,0.014834880828857422,1.6419179439544678
